<?xml version="1.0" encoding="UTF-8"?>

<Questionnaire xmlns="http://hl7.org/fhir">
  <id value="qs1"/>
  <contained>
    <ValueSet>
      <id value="vs2"/>
      <name value="Type options for CareTeam.subject"/>
      <status value="active"/>
      <description value="Type options for CareTeam.subject"/>
      <expansion>
        <identifier value="urn:uuid:2508e72e-ac19-486a-8f25-a68d061fa4ad"/>
        <timestamp value="2016-10-27T16:26:43+00:00"/>
        <contains>
          <system value="http://hl7.org/fhir/resource-types"/>
          <code value="Patient"/>
          <display value="Patient"/>
        </contains>
        <contains>
          <system value="http://hl7.org/fhir/resource-types"/>
          <code value="Group"/>
          <display value="Group"/>
        </contains>
      </expansion>
    </ValueSet>
  </contained>
  <contained>
    <ValueSet>
      <id value="vs3"/>
      <name value="Type options for CareTeam.participant.member"/>
      <status value="active"/>
      <description value="Type options for CareTeam.participant.member"/>
      <expansion>
        <identifier value="urn:uuid:aa836ab6-086b-4fd1-ba6a-f667928c5aad"/>
        <timestamp value="2016-10-27T16:26:43+00:00"/>
        <contains>
          <system value="http://hl7.org/fhir/resource-types"/>
          <code value="Practitioner"/>
          <display value="Practitioner"/>
        </contains>
        <contains>
          <system value="http://hl7.org/fhir/resource-types"/>
          <code value="RelatedPerson"/>
          <display value="RelatedPerson"/>
        </contains>
        <contains>
          <system value="http://hl7.org/fhir/resource-types"/>
          <code value="Patient"/>
          <display value="Patient"/>
        </contains>
        <contains>
          <system value="http://hl7.org/fhir/resource-types"/>
          <code value="Organization"/>
          <display value="Organization"/>
        </contains>
      </expansion>
    </ValueSet>
  </contained>
  <identifier>
    <system value="urn:ietf:rfc:3986"/>
  </identifier>
  <status value="draft"/>
  <date value="2016-10-27T16:23:35+00:00"/>
  <publisher value="Health Level Seven International (Patient Care)"/>
  <item>
    <linkId value="CareTeam"/>
    <text value="Planned participants in the coordination and delivery of care for a patient or group"/>
    <type value="group"/>
    <required value="false"/>
    <repeats value="true"/>
    <item>
      <extension url="http://hl7.org/fhir/StructureDefinition/questionnaire-itemControl">
        <valueCodeableConcept>
          <coding>
            <system value="http://hl7.org/fhir/questionnaire-item-control"/>
            <code value="flyover"/>
            <display value="Fly-over"/>
          </coding>
        </valueCodeableConcept>
      </extension>
      <text value="The Care Team includes all the people and organizations who plan to participate in the coordination and delivery of care for a patient."/>
      <type value="display"/>
    </item>
    <item>
      <extension url="http://hl7.org/fhir/StructureDefinition/questionnaire-maxOccurs">
        <valueInteger value="1"/>
      </extension>
      <extension url="http://hl7.org/fhir/StructureDefinition/questionnaire-fhirType">
        <valueString value="string"/>
      </extension>
      <linkId value="CareTeam.id"/>
      <type value="group"/>
      <required value="false"/>
      <repeats value="true"/>
      <item>
        <extension url="http://hl7.org/fhir/StructureDefinition/questionnaire-itemControl">
          <valueCodeableConcept>
            <coding>
              <system value="http://hl7.org/fhir/questionnaire-item-control"/>
              <code value="flyover"/>
              <display value="Fly-over"/>
            </coding>
          </valueCodeableConcept>
        </extension>
        <text value="The logical id of the resource, as used in the URL for the resource. Once assigned, this value never changes. The only time that a resource does not have an id is when it is being submitted to the server using a create operation."/>
        <type value="display"/>
      </item>
      <item>
        <linkId value="CareTeam.id.value"/>
        <text value="Logical id of this artifact"/>
        <type value="string"/>
        <required value="false"/>
        <repeats value="false"/>
      </item>
    </item>
    <item>
      <extension url="http://hl7.org/fhir/StructureDefinition/questionnaire-maxOccurs">
        <valueInteger value="1"/>
      </extension>
      <linkId value="CareTeam.meta"/>
      <text value="Metadata about the resource"/>
      <type value="group"/>
      <required value="false"/>
      <repeats value="true"/>
      <item>
        <extension url="http://hl7.org/fhir/StructureDefinition/questionnaire-itemControl">
          <valueCodeableConcept>
            <coding>
              <system value="http://hl7.org/fhir/questionnaire-item-control"/>
              <code value="flyover"/>
              <display value="Fly-over"/>
            </coding>
          </valueCodeableConcept>
        </extension>
        <text value="The metadata about the resource. This is content that is maintained by the infrastructure. Changes to the content may not always be associated with version changes to the resource."/>
        <type value="display"/>
      </item>
    </item>
    <item>
      <extension url="http://hl7.org/fhir/StructureDefinition/questionnaire-maxOccurs">
        <valueInteger value="1"/>
      </extension>
      <extension url="http://hl7.org/fhir/StructureDefinition/questionnaire-fhirType">
        <valueString value="uri"/>
      </extension>
      <linkId value="CareTeam.implicitRules"/>
      <type value="group"/>
      <required value="false"/>
      <repeats value="true"/>
      <item>
        <extension url="http://hl7.org/fhir/StructureDefinition/questionnaire-itemControl">
          <valueCodeableConcept>
            <coding>
              <system value="http://hl7.org/fhir/questionnaire-item-control"/>
              <code value="flyover"/>
              <display value="Fly-over"/>
            </coding>
          </valueCodeableConcept>
        </extension>
        <text value="A reference to a set of rules that were followed when the resource was constructed, and which must be understood when processing the content. Asserting this rule set restricts the content to be only understood by a limited set of trading partners. This inherently limits the usefulness of the data in the long term. However, the existing health eco-system is highly fractured, and not yet ready to define, collect, and exchange data in a generally computable sense. Wherever possible, implementers and/or specification writers should avoid using this element as much as possible."/>
        <type value="display"/>
      </item>
      <item>
        <linkId value="CareTeam.implicitRules.value"/>
        <text value="A set of rules under which this content was created"/>
        <type value="string"/>
        <required value="false"/>
        <repeats value="false"/>
      </item>
    </item>
    <item>
      <extension url="http://hl7.org/fhir/StructureDefinition/questionnaire-maxOccurs">
        <valueInteger value="1"/>
      </extension>
      <extension url="http://hl7.org/fhir/StructureDefinition/questionnaire-fhirType">
        <valueString value="code"/>
      </extension>
      <linkId value="CareTeam.language"/>
      <type value="group"/>
      <required value="false"/>
      <repeats value="true"/>
      <item>
        <extension url="http://hl7.org/fhir/StructureDefinition/questionnaire-itemControl">
          <valueCodeableConcept>
            <coding>
              <system value="http://hl7.org/fhir/questionnaire-item-control"/>
              <code value="flyover"/>
              <display value="Fly-over"/>
            </coding>
          </valueCodeableConcept>
        </extension>
        <text value="The base language in which the resource is written. Language is provided to support indexing and accessibility (typically, services such as text to speech use the language tag). The html language tag in the narrative applies  to the narrative. The language tag on the resource may be used to specify the language of other presentations generated from the data in the resource  Not all the content has to be in the base language. The Resource.language should not be assumed to apply to the narrative automatically. If a language is specified, it should it also be specified on the div element in the html (see rules in HTML5 for information about the relationship between xml:lang and the html lang attribute)."/>
        <type value="display"/>
      </item>
      <item>
        <linkId value="CareTeam.language.value"/>
        <text value="language"/>
        <type value="choice"/>
        <required value="false"/>
        <repeats value="false"/>
      </item>
    </item>
    <item>
      <extension url="http://hl7.org/fhir/StructureDefinition/questionnaire-maxOccurs">
        <valueInteger value="1"/>
      </extension>
      <linkId value="CareTeam.text"/>
      <text value="Text summary of the resource, for human interpretation"/>
      <type value="group"/>
      <required value="false"/>
      <repeats value="true"/>
      <item>
        <extension url="http://hl7.org/fhir/StructureDefinition/questionnaire-itemControl">
          <valueCodeableConcept>
            <coding>
              <system value="http://hl7.org/fhir/questionnaire-item-control"/>
              <code value="flyover"/>
              <display value="Fly-over"/>
            </coding>
          </valueCodeableConcept>
        </extension>
        <text value="A human-readable narrative that contains a summary of the resource, and may be used to represent the content of the resource to a human. The narrative need not encode all the structured data, but is required to contain sufficient detail to make it &quot;clinically safe&quot; for a human to just read the narrative. Resource definitions may define what content should be represented in the narrative to ensure clinical safety. Contained resources do not have narrative. Resources that are not contained SHOULD have a narrative. In some cases, a resource may only have text with little or no additional discrete data (as long as all minOccurs=1 elements are satisfied).  This may be necessary for data from legacy systems where information is captured as a &quot;text blob&quot; or where text is additionally entered raw or narrated and encoded in formation is added later."/>
        <type value="display"/>
      </item>
    </item>
    <item>
      <linkId value="CareTeam.contained"/>
      <text value="Contained, inline Resources"/>
      <type value="group"/>
      <required value="false"/>
      <repeats value="true"/>
      <item>
        <extension url="http://hl7.org/fhir/StructureDefinition/questionnaire-itemControl">
          <valueCodeableConcept>
            <coding>
              <system value="http://hl7.org/fhir/questionnaire-item-control"/>
              <code value="flyover"/>
              <display value="Fly-over"/>
            </coding>
          </valueCodeableConcept>
        </extension>
        <text value="These resources do not have an independent existence apart from the resource that contains them - they cannot be identified independently, and nor can they have their own independent transaction scope. This should never be done when the content can be identified properly, as once identification is lost, it is extremely difficult (and context dependent) to restore it again."/>
        <type value="display"/>
      </item>
    </item>
    <item>
      <linkId value="CareTeam.extension"/>
      <text value="Additional Content defined by implementations"/>
      <type value="group"/>
      <required value="false"/>
      <repeats value="true"/>
      <item>
        <extension url="http://hl7.org/fhir/StructureDefinition/questionnaire-itemControl">
          <valueCodeableConcept>
            <coding>
              <system value="http://hl7.org/fhir/questionnaire-item-control"/>
              <code value="flyover"/>
              <display value="Fly-over"/>
            </coding>
          </valueCodeableConcept>
        </extension>
        <text value="May be used to represent additional information that is not part of the basic definition of the resource. In order to make the use of extensions safe and manageable, there is a strict set of governance  applied to the definition and use of extensions. Though any implementer is allowed to define an extension, there is a set of requirements that SHALL be met as part of the definition of the extension. There can be no stigma associated with the use of extensions by any application, project, or standard - regardless of the institution or jurisdiction that uses or defines the extensions.  The use of extensions is what allows the FHIR specification to retain a core level of simplicity for everyone."/>
        <type value="display"/>
      </item>
    </item>
    <item>
      <linkId value="CareTeam.modifierExtension"/>
      <text value="Extensions that cannot be ignored"/>
      <type value="group"/>
      <required value="false"/>
      <repeats value="true"/>
      <item>
        <extension url="http://hl7.org/fhir/StructureDefinition/questionnaire-itemControl">
          <valueCodeableConcept>
            <coding>
              <system value="http://hl7.org/fhir/questionnaire-item-control"/>
              <code value="flyover"/>
              <display value="Fly-over"/>
            </coding>
          </valueCodeableConcept>
        </extension>
        <text value="May be used to represent additional information that is not part of the basic definition of the resource, and that modifies the understanding of the element that contains it. Usually modifier elements provide negation or qualification. In order to make the use of extensions safe and manageable, there is a strict set of governance applied to the definition and use of extensions. Though any implementer is allowed to define an extension, there is a set of requirements that SHALL be met as part of the definition of the extension. Applications processing a resource are required to check for modifier extensions. There can be no stigma associated with the use of extensions by any application, project, or standard - regardless of the institution or jurisdiction that uses or defines the extensions.  The use of extensions is what allows the FHIR specification to retain a core level of simplicity for everyone."/>
        <type value="display"/>
      </item>
    </item>
    <item>
      <extension url="http://hl7.org/fhir/StructureDefinition/questionnaire-fhirType">
        <valueString value="Identifier"/>
      </extension>
      <linkId value="CareTeam.identifier"/>
      <text value="External Ids for this team"/>
      <type value="group"/>
      <required value="false"/>
      <repeats value="true"/>
      <item>
        <extension url="http://hl7.org/fhir/StructureDefinition/questionnaire-itemControl">
          <valueCodeableConcept>
            <coding>
              <system value="http://hl7.org/fhir/questionnaire-item-control"/>
              <code value="flyover"/>
              <display value="Fly-over"/>
            </coding>
          </valueCodeableConcept>
        </extension>
        <text value="This records identifiers associated with this care team that are defined by business processes and/or used to refer to it when a direct URL reference to the resource itself is not appropriate."/>
        <type value="display"/>
      </item>
      <item>
        <linkId value="CareTeam.identifier.label"/>
        <text value="label:"/>
        <type value="string"/>
        <required value="false"/>
        <repeats value="false"/>
      </item>
      <item>
        <linkId value="CareTeam.identifier.system"/>
        <text value="system:"/>
        <type value="string"/>
        <required value="false"/>
        <repeats value="false"/>
      </item>
      <item>
        <linkId value="CareTeam.identifier.value"/>
        <text value="value:"/>
        <type value="string"/>
        <required value="false"/>
        <repeats value="false"/>
      </item>
    </item>
    <item>
      <extension url="http://hl7.org/fhir/StructureDefinition/questionnaire-maxOccurs">
        <valueInteger value="1"/>
      </extension>
      <extension url="http://hl7.org/fhir/StructureDefinition/questionnaire-fhirType">
        <valueString value="CodeableConcept"/>
      </extension>
      <linkId value="CareTeam.status"/>
      <text value="active | suspended | inactive | entered in error"/>
      <type value="group"/>
      <required value="false"/>
      <repeats value="true"/>
      <item>
        <extension url="http://hl7.org/fhir/StructureDefinition/questionnaire-itemControl">
          <valueCodeableConcept>
            <coding>
              <system value="http://hl7.org/fhir/questionnaire-item-control"/>
              <code value="flyover"/>
              <display value="Fly-over"/>
            </coding>
          </valueCodeableConcept>
        </extension>
        <text value="Indicates whether the care team is currently active, suspended, inactive, or entered in error."/>
        <type value="display"/>
      </item>
      <item>
        <linkId value="CareTeam.status.coding"/>
        <text value="code:"/>
        <type value="open-choice"/>
        <required value="false"/>
        <repeats value="false"/>
      </item>
      <item>
        <linkId value="CareTeam.status.text"/>
        <text value="text:"/>
        <type value="string"/>
        <required value="false"/>
        <repeats value="false"/>
      </item>
    </item>
    <item>
      <extension url="http://hl7.org/fhir/StructureDefinition/questionnaire-fhirType">
        <valueString value="CodeableConcept"/>
      </extension>
      <linkId value="CareTeam.type"/>
      <text value="Type of team"/>
      <type value="group"/>
      <required value="false"/>
      <repeats value="true"/>
      <item>
        <extension url="http://hl7.org/fhir/StructureDefinition/questionnaire-itemControl">
          <valueCodeableConcept>
            <coding>
              <system value="http://hl7.org/fhir/questionnaire-item-control"/>
              <code value="flyover"/>
              <display value="Fly-over"/>
            </coding>
          </valueCodeableConcept>
        </extension>
        <text value="Identifies what kind of team.  This is to support differentiation between multiple co-existing teams, such as care plan team, episode of care team, longitudinal care team. There may be multiple axis of categorization and one team may serve multiple purposes."/>
        <type value="display"/>
      </item>
      <item>
        <linkId value="CareTeam.type.coding"/>
        <text value="code:"/>
        <type value="open-choice"/>
        <required value="false"/>
        <repeats value="false"/>
      </item>
      <item>
        <linkId value="CareTeam.type.text"/>
        <text value="text:"/>
        <type value="string"/>
        <required value="false"/>
        <repeats value="false"/>
      </item>
    </item>
    <item>
      <extension url="http://hl7.org/fhir/StructureDefinition/questionnaire-maxOccurs">
        <valueInteger value="1"/>
      </extension>
      <extension url="http://hl7.org/fhir/StructureDefinition/questionnaire-fhirType">
        <valueString value="string"/>
      </extension>
      <linkId value="CareTeam.name"/>
      <type value="group"/>
      <required value="false"/>
      <repeats value="true"/>
      <item>
        <extension url="http://hl7.org/fhir/StructureDefinition/questionnaire-itemControl">
          <valueCodeableConcept>
            <coding>
              <system value="http://hl7.org/fhir/questionnaire-item-control"/>
              <code value="flyover"/>
              <display value="Fly-over"/>
            </coding>
          </valueCodeableConcept>
        </extension>
        <text value="Name of the care team."/>
        <type value="display"/>
      </item>
      <item>
        <linkId value="CareTeam.name.value"/>
        <text value="Name of the team, such as crisis assessment team"/>
        <type value="string"/>
        <required value="false"/>
        <repeats value="false"/>
      </item>
    </item>
    <item>
      <extension url="http://hl7.org/fhir/StructureDefinition/questionnaire-maxOccurs">
        <valueInteger value="1"/>
      </extension>
      <linkId value="CareTeam.subject"/>
      <text value="Who care team is for"/>
      <type value="group"/>
      <required value="false"/>
      <repeats value="true"/>
      <item>
        <extension url="http://hl7.org/fhir/StructureDefinition/questionnaire-itemControl">
          <valueCodeableConcept>
            <coding>
              <system value="http://hl7.org/fhir/questionnaire-item-control"/>
              <code value="flyover"/>
              <display value="Fly-over"/>
            </coding>
          </valueCodeableConcept>
        </extension>
        <text value="Identifies the patient or group whose intended care is handled by the team."/>
        <type value="display"/>
      </item>
      <item>
        <linkId value="CareTeam.subject._type"/>
        <text value="type"/>
        <type value="choice"/>
        <required value="false"/>
        <repeats value="false"/>
        <options>
          <reference value="#vs2"/>
        </options>
        <item>
          <extension url="http://hl7.org/fhir/StructureDefinition/questionnaire-fhirType">
            <valueString value="Reference"/>
          </extension>
          <linkId value="CareTeam.subject._Patient"/>
          <type value="group"/>
          <item>
            <extension url="http://hl7.org/fhir/StructureDefinition/questionnaire-allowedResource">
              <valueCode value="Patient"/>
            </extension>
            <extension url="http://hl7.org/fhir/StructureDefinition/questionnaire-referenceFilter">
              <valueString value="subject=$subj&amp;patient=$subj&amp;encounter=$encounter"/>
            </extension>
            <linkId value="CareTeam.subject._Patient.value"/>
            <text value="Patient"/>
            <type value="reference"/>
            <required value="false"/>
            <repeats value="false"/>
          </item>
        </item>
        <item>
          <extension url="http://hl7.org/fhir/StructureDefinition/questionnaire-fhirType">
            <valueString value="Reference"/>
          </extension>
          <linkId value="CareTeam.subject._Group"/>
          <type value="group"/>
          <item>
            <extension url="http://hl7.org/fhir/StructureDefinition/questionnaire-allowedResource">
              <valueCode value="Group"/>
            </extension>
            <extension url="http://hl7.org/fhir/StructureDefinition/questionnaire-referenceFilter">
              <valueString value="subject=$subj&amp;patient=$subj&amp;encounter=$encounter"/>
            </extension>
            <linkId value="CareTeam.subject._Group.value"/>
            <text value="Group"/>
            <type value="reference"/>
            <required value="false"/>
            <repeats value="false"/>
          </item>
        </item>
      </item>
    </item>
    <item>
      <extension url="http://hl7.org/fhir/StructureDefinition/questionnaire-maxOccurs">
        <valueInteger value="1"/>
      </extension>
      <extension url="http://hl7.org/fhir/StructureDefinition/questionnaire-fhirType">
        <valueString value="Period"/>
      </extension>
      <linkId value="CareTeam.period"/>
      <text value="Time period team covers"/>
      <type value="group"/>
      <required value="false"/>
      <repeats value="true"/>
      <item>
        <extension url="http://hl7.org/fhir/StructureDefinition/questionnaire-itemControl">
          <valueCodeableConcept>
            <coding>
              <system value="http://hl7.org/fhir/questionnaire-item-control"/>
              <code value="flyover"/>
              <display value="Fly-over"/>
            </coding>
          </valueCodeableConcept>
        </extension>
        <text value="Indicates when the team did (or is intended to) come into effect and end."/>
        <type value="display"/>
      </item>
      <item>
        <linkId value="CareTeam.period.low"/>
        <text value="start:"/>
        <type value="dateTime"/>
        <required value="false"/>
        <repeats value="false"/>
      </item>
      <item>
        <linkId value="CareTeam.period.end"/>
        <text value="end:"/>
        <type value="dateTime"/>
        <required value="false"/>
        <repeats value="false"/>
      </item>
    </item>
    <item>
      <linkId value="CareTeam.participant"/>
      <text value="Members of the team"/>
      <type value="group"/>
      <required value="false"/>
      <repeats value="true"/>
      <item>
        <extension url="http://hl7.org/fhir/StructureDefinition/questionnaire-itemControl">
          <valueCodeableConcept>
            <coding>
              <system value="http://hl7.org/fhir/questionnaire-item-control"/>
              <code value="flyover"/>
              <display value="Fly-over"/>
            </coding>
          </valueCodeableConcept>
        </extension>
        <text value="Identifies all people and organizations who are expected to be involved in the care team."/>
        <type value="display"/>
      </item>
      <item>
        <extension url="http://hl7.org/fhir/StructureDefinition/questionnaire-maxOccurs">
          <valueInteger value="1"/>
        </extension>
        <extension url="http://hl7.org/fhir/StructureDefinition/questionnaire-fhirType">
          <valueString value="string"/>
        </extension>
        <linkId value="CareTeam.participant.id"/>
        <type value="group"/>
        <required value="false"/>
        <repeats value="true"/>
        <item>
          <extension url="http://hl7.org/fhir/StructureDefinition/questionnaire-itemControl">
            <valueCodeableConcept>
              <coding>
                <system value="http://hl7.org/fhir/questionnaire-item-control"/>
                <code value="flyover"/>
                <display value="Fly-over"/>
              </coding>
            </valueCodeableConcept>
          </extension>
          <text value="unique id for the element within a resource (for internal references). This may be any string value that does not contain spaces."/>
          <type value="display"/>
        </item>
        <item>
          <linkId value="CareTeam.participant.id.value"/>
          <text value="xml:id (or equivalent in JSON)"/>
          <type value="string"/>
          <required value="false"/>
          <repeats value="false"/>
        </item>
      </item>
      <item>
        <linkId value="CareTeam.participant.extension"/>
        <text value="Additional Content defined by implementations"/>
        <type value="group"/>
        <required value="false"/>
        <repeats value="true"/>
        <item>
          <extension url="http://hl7.org/fhir/StructureDefinition/questionnaire-itemControl">
            <valueCodeableConcept>
              <coding>
                <system value="http://hl7.org/fhir/questionnaire-item-control"/>
                <code value="flyover"/>
                <display value="Fly-over"/>
              </coding>
            </valueCodeableConcept>
          </extension>
          <text value="May be used to represent additional information that is not part of the basic definition of the element. In order to make the use of extensions safe and manageable, there is a strict set of governance  applied to the definition and use of extensions. Though any implementer is allowed to define an extension, there is a set of requirements that SHALL be met as part of the definition of the extension. There can be no stigma associated with the use of extensions by any application, project, or standard - regardless of the institution or jurisdiction that uses or defines the extensions.  The use of extensions is what allows the FHIR specification to retain a core level of simplicity for everyone."/>
          <type value="display"/>
        </item>
      </item>
      <item>
        <linkId value="CareTeam.participant.modifierExtension"/>
        <text value="Extensions that cannot be ignored"/>
        <type value="group"/>
        <required value="false"/>
        <repeats value="true"/>
        <item>
          <extension url="http://hl7.org/fhir/StructureDefinition/questionnaire-itemControl">
            <valueCodeableConcept>
              <coding>
                <system value="http://hl7.org/fhir/questionnaire-item-control"/>
                <code value="flyover"/>
                <display value="Fly-over"/>
              </coding>
            </valueCodeableConcept>
          </extension>
          <text value="May be used to represent additional information that is not part of the basic definition of the element, and that modifies the understanding of the element that contains it. Usually modifier elements provide negation or qualification. In order to make the use of extensions safe and manageable, there is a strict set of governance applied to the definition and use of extensions. Though any implementer is allowed to define an extension, there is a set of requirements that SHALL be met as part of the definition of the extension. Applications processing a resource are required to check for modifier extensions. There can be no stigma associated with the use of extensions by any application, project, or standard - regardless of the institution or jurisdiction that uses or defines the extensions.  The use of extensions is what allows the FHIR specification to retain a core level of simplicity for everyone."/>
          <type value="display"/>
        </item>
      </item>
      <item>
        <extension url="http://hl7.org/fhir/StructureDefinition/questionnaire-maxOccurs">
          <valueInteger value="1"/>
        </extension>
        <extension url="http://hl7.org/fhir/StructureDefinition/questionnaire-fhirType">
          <valueString value="CodeableConcept"/>
        </extension>
        <linkId value="CareTeam.participant.role"/>
        <text value="Type of involvement"/>
        <type value="group"/>
        <required value="false"/>
        <repeats value="true"/>
        <item>
          <extension url="http://hl7.org/fhir/StructureDefinition/questionnaire-itemControl">
            <valueCodeableConcept>
              <coding>
                <system value="http://hl7.org/fhir/questionnaire-item-control"/>
                <code value="flyover"/>
                <display value="Fly-over"/>
              </coding>
            </valueCodeableConcept>
          </extension>
          <text value="Indicates specific responsibility of an individual within the care team, such as &quot;Primary physician&quot;, &quot;Team coordinator&quot;, &quot;Caregiver&quot;, etc. Roles may sometimes be inferred by type of Practitioner.  These are relationships that hold only within the context of the care team.  General relationships should be handled as properties of the Patient resource directly."/>
          <type value="display"/>
        </item>
        <item>
          <linkId value="CareTeam.participant.role.coding"/>
          <text value="code:"/>
          <type value="open-choice"/>
          <required value="false"/>
          <repeats value="false"/>
        </item>
        <item>
          <linkId value="CareTeam.participant.role.text"/>
          <text value="text:"/>
          <type value="string"/>
          <required value="false"/>
          <repeats value="false"/>
        </item>
      </item>
      <item>
        <extension url="http://hl7.org/fhir/StructureDefinition/questionnaire-maxOccurs">
          <valueInteger value="1"/>
        </extension>
        <linkId value="CareTeam.participant.member"/>
        <text value="Who is involved"/>
        <type value="group"/>
        <required value="false"/>
        <repeats value="true"/>
        <item>
          <extension url="http://hl7.org/fhir/StructureDefinition/questionnaire-itemControl">
            <valueCodeableConcept>
              <coding>
                <system value="http://hl7.org/fhir/questionnaire-item-control"/>
                <code value="flyover"/>
                <display value="Fly-over"/>
              </coding>
            </valueCodeableConcept>
          </extension>
          <text value="The specific person or organization who is participating/expected to participate in the care team. Patient only needs to be listed if they have a role other than &quot;subject of care&quot;.

Member is optional because some participants may be known only by their role, particularly in draft plans."/>
          <type value="display"/>
        </item>
        <item>
          <linkId value="CareTeam.participant.member._type"/>
          <text value="type"/>
          <type value="choice"/>
          <required value="false"/>
          <repeats value="false"/>
          <options>
            <reference value="#vs3"/>
          </options>
          <item>
            <extension url="http://hl7.org/fhir/StructureDefinition/questionnaire-fhirType">
              <valueString value="Reference"/>
            </extension>
            <linkId value="CareTeam.participant.member._Practitioner"/>
            <type value="group"/>
            <item>
              <extension url="http://hl7.org/fhir/StructureDefinition/questionnaire-allowedResource">
                <valueCode value="Practitioner"/>
              </extension>
              <extension url="http://hl7.org/fhir/StructureDefinition/questionnaire-referenceFilter">
                <valueString value="subject=$subj&amp;patient=$subj&amp;encounter=$encounter"/>
              </extension>
              <linkId value="CareTeam.participant.member._Practitioner.value"/>
              <text value="Practitioner"/>
              <type value="reference"/>
              <required value="false"/>
              <repeats value="false"/>
            </item>
          </item>
          <item>
            <extension url="http://hl7.org/fhir/StructureDefinition/questionnaire-fhirType">
              <valueString value="Reference"/>
            </extension>
            <linkId value="CareTeam.participant.member._RelatedPerson"/>
            <type value="group"/>
            <item>
              <extension url="http://hl7.org/fhir/StructureDefinition/questionnaire-allowedResource">
                <valueCode value="RelatedPerson"/>
              </extension>
              <extension url="http://hl7.org/fhir/StructureDefinition/questionnaire-referenceFilter">
                <valueString value="subject=$subj&amp;patient=$subj&amp;encounter=$encounter"/>
              </extension>
              <linkId value="CareTeam.participant.member._RelatedPerson.value"/>
              <text value="RelatedPerson"/>
              <type value="reference"/>
              <required value="false"/>
              <repeats value="false"/>
            </item>
          </item>
          <item>
            <extension url="http://hl7.org/fhir/StructureDefinition/questionnaire-fhirType">
              <valueString value="Reference"/>
            </extension>
            <linkId value="CareTeam.participant.member._Patient"/>
            <type value="group"/>
            <item>
              <extension url="http://hl7.org/fhir/StructureDefinition/questionnaire-allowedResource">
                <valueCode value="Patient"/>
              </extension>
              <extension url="http://hl7.org/fhir/StructureDefinition/questionnaire-referenceFilter">
                <valueString value="subject=$subj&amp;patient=$subj&amp;encounter=$encounter"/>
              </extension>
              <linkId value="CareTeam.participant.member._Patient.value"/>
              <text value="Patient"/>
              <type value="reference"/>
              <required value="false"/>
              <repeats value="false"/>
            </item>
          </item>
          <item>
            <extension url="http://hl7.org/fhir/StructureDefinition/questionnaire-fhirType">
              <valueString value="Reference"/>
            </extension>
            <linkId value="CareTeam.participant.member._Organization"/>
            <type value="group"/>
            <item>
              <extension url="http://hl7.org/fhir/StructureDefinition/questionnaire-allowedResource">
                <valueCode value="Organization"/>
              </extension>
              <extension url="http://hl7.org/fhir/StructureDefinition/questionnaire-referenceFilter">
                <valueString value="subject=$subj&amp;patient=$subj&amp;encounter=$encounter"/>
              </extension>
              <linkId value="CareTeam.participant.member._Organization.value"/>
              <text value="Organization"/>
              <type value="reference"/>
              <required value="false"/>
              <repeats value="false"/>
            </item>
          </item>
        </item>
      </item>
      <item>
        <extension url="http://hl7.org/fhir/StructureDefinition/questionnaire-maxOccurs">
          <valueInteger value="1"/>
        </extension>
        <extension url="http://hl7.org/fhir/StructureDefinition/questionnaire-fhirType">
          <valueString value="Period"/>
        </extension>
        <linkId value="CareTeam.participant.period"/>
        <text value="Time period of participant"/>
        <type value="group"/>
        <required value="false"/>
        <repeats value="true"/>
        <item>
          <extension url="http://hl7.org/fhir/StructureDefinition/questionnaire-itemControl">
            <valueCodeableConcept>
              <coding>
                <system value="http://hl7.org/fhir/questionnaire-item-control"/>
                <code value="flyover"/>
                <display value="Fly-over"/>
              </coding>
            </valueCodeableConcept>
          </extension>
          <text value="Indicates when the specific member or organization did (or is intended to) come into effect and end."/>
          <type value="display"/>
        </item>
        <item>
          <linkId value="CareTeam.participant.period.low"/>
          <text value="start:"/>
          <type value="dateTime"/>
          <required value="false"/>
          <repeats value="false"/>
        </item>
        <item>
          <linkId value="CareTeam.participant.period.end"/>
          <text value="end:"/>
          <type value="dateTime"/>
          <required value="false"/>
          <repeats value="false"/>
        </item>
      </item>
    </item>
    <item>
      <extension url="http://hl7.org/fhir/StructureDefinition/questionnaire-maxOccurs">
        <valueInteger value="1"/>
      </extension>
      <extension url="http://hl7.org/fhir/StructureDefinition/questionnaire-fhirType">
        <valueString value="Reference"/>
      </extension>
      <linkId value="CareTeam.managingOrganization"/>
      <type value="group"/>
      <required value="false"/>
      <repeats value="true"/>
      <item>
        <extension url="http://hl7.org/fhir/StructureDefinition/questionnaire-itemControl">
          <valueCodeableConcept>
            <coding>
              <system value="http://hl7.org/fhir/questionnaire-item-control"/>
              <code value="flyover"/>
              <display value="Fly-over"/>
            </coding>
          </valueCodeableConcept>
        </extension>
        <text value="The organization responsible for the care team."/>
        <type value="display"/>
      </item>
      <item>
        <extension url="http://hl7.org/fhir/StructureDefinition/questionnaire-allowedResource">
          <valueCode value="Organization"/>
        </extension>
        <extension url="http://hl7.org/fhir/StructureDefinition/questionnaire-referenceFilter">
          <valueString value="subject=$subj&amp;patient=$subj&amp;encounter=$encounter"/>
        </extension>
        <linkId value="CareTeam.managingOrganization.value"/>
        <text value="Organization responsible for the care team"/>
        <type value="reference"/>
        <required value="false"/>
        <repeats value="false"/>
      </item>
    </item>
  </item>
</Questionnaire>