<?xml version="1.0" encoding="UTF-8"?>

<Questionnaire xmlns="http://hl7.org/fhir">
  <id value="qs1"/>
  <contained>
    <ValueSet>
      <id value="vs2"/>
      <name value="Type options for DocumentManifest.subject"/>
      <status value="active"/>
      <description value="Type options for DocumentManifest.subject"/>
      <expansion>
        <identifier value="urn:uuid:736d91d4-2fac-4162-be1e-d41b13a806d1"/>
        <timestamp value="2016-10-27T16:27:09+00:00"/>
        <contains>
          <system value="http://hl7.org/fhir/resource-types"/>
          <code value="Patient"/>
          <display value="Patient"/>
        </contains>
        <contains>
          <system value="http://hl7.org/fhir/resource-types"/>
          <code value="Practitioner"/>
          <display value="Practitioner"/>
        </contains>
        <contains>
          <system value="http://hl7.org/fhir/resource-types"/>
          <code value="Group"/>
          <display value="Group"/>
        </contains>
        <contains>
          <system value="http://hl7.org/fhir/resource-types"/>
          <code value="Device"/>
          <display value="Device"/>
        </contains>
      </expansion>
    </ValueSet>
  </contained>
  <contained>
    <ValueSet>
      <id value="vs3"/>
      <name value="Type options for DocumentManifest.recipient"/>
      <status value="active"/>
      <description value="Type options for DocumentManifest.recipient"/>
      <expansion>
        <identifier value="urn:uuid:960eeb9c-59c9-4b47-9854-f17664dff7f7"/>
        <timestamp value="2016-10-27T16:27:09+00:00"/>
        <contains>
          <system value="http://hl7.org/fhir/resource-types"/>
          <code value="Patient"/>
          <display value="Patient"/>
        </contains>
        <contains>
          <system value="http://hl7.org/fhir/resource-types"/>
          <code value="Practitioner"/>
          <display value="Practitioner"/>
        </contains>
        <contains>
          <system value="http://hl7.org/fhir/resource-types"/>
          <code value="RelatedPerson"/>
          <display value="RelatedPerson"/>
        </contains>
        <contains>
          <system value="http://hl7.org/fhir/resource-types"/>
          <code value="Organization"/>
          <display value="Organization"/>
        </contains>
      </expansion>
    </ValueSet>
  </contained>
  <contained>
    <ValueSet>
      <id value="vs4"/>
      <name value="Type options for DocumentManifest.author"/>
      <status value="active"/>
      <description value="Type options for DocumentManifest.author"/>
      <expansion>
        <identifier value="urn:uuid:3a637359-3ef6-4408-9b4b-49d2ac26c69c"/>
        <timestamp value="2016-10-27T16:27:09+00:00"/>
        <contains>
          <system value="http://hl7.org/fhir/resource-types"/>
          <code value="Practitioner"/>
          <display value="Practitioner"/>
        </contains>
        <contains>
          <system value="http://hl7.org/fhir/resource-types"/>
          <code value="Organization"/>
          <display value="Organization"/>
        </contains>
        <contains>
          <system value="http://hl7.org/fhir/resource-types"/>
          <code value="Device"/>
          <display value="Device"/>
        </contains>
        <contains>
          <system value="http://hl7.org/fhir/resource-types"/>
          <code value="Patient"/>
          <display value="Patient"/>
        </contains>
        <contains>
          <system value="http://hl7.org/fhir/resource-types"/>
          <code value="RelatedPerson"/>
          <display value="RelatedPerson"/>
        </contains>
      </expansion>
    </ValueSet>
  </contained>
  <contained>
    <ValueSet>
      <id value="vs5"/>
      <name value="Type options for DocumentManifest.content.p[x]"/>
      <status value="active"/>
      <description value="Type options for DocumentManifest.content.p[x]"/>
      <expansion>
        <identifier value="urn:uuid:e6f18d65-86c0-4921-8454-68d36a99b376"/>
        <timestamp value="2016-10-27T16:27:09+00:00"/>
        <contains>
          <system value="http://hl7.org/fhir/data-types"/>
          <code value="Attachment"/>
          <display value="Attachment"/>
        </contains>
        <contains>
          <system value="http://hl7.org/fhir/resource-types"/>
          <code value="Resource"/>
          <display value="Resource"/>
        </contains>
      </expansion>
    </ValueSet>
  </contained>
  <identifier>
    <system value="urn:ietf:rfc:3986"/>
  </identifier>
  <status value="draft"/>
  <date value="2016-10-27T16:23:35+00:00"/>
  <publisher value="Health Level Seven International (Structured Documents)"/>
  <item>
    <linkId value="DocumentManifest"/>
    <text value="A manifest that defines a set of documents"/>
    <type value="group"/>
    <required value="false"/>
    <repeats value="true"/>
    <item>
      <extension url="http://hl7.org/fhir/StructureDefinition/questionnaire-itemControl">
        <valueCodeableConcept>
          <coding>
            <system value="http://hl7.org/fhir/questionnaire-item-control"/>
            <code value="flyover"/>
            <display value="Fly-over"/>
          </coding>
        </valueCodeableConcept>
      </extension>
      <text value="A manifest that defines a set of documents."/>
      <type value="display"/>
    </item>
    <item>
      <extension url="http://hl7.org/fhir/StructureDefinition/questionnaire-maxOccurs">
        <valueInteger value="1"/>
      </extension>
      <extension url="http://hl7.org/fhir/StructureDefinition/questionnaire-fhirType">
        <valueString value="string"/>
      </extension>
      <linkId value="DocumentManifest.id"/>
      <type value="group"/>
      <required value="false"/>
      <repeats value="true"/>
      <item>
        <extension url="http://hl7.org/fhir/StructureDefinition/questionnaire-itemControl">
          <valueCodeableConcept>
            <coding>
              <system value="http://hl7.org/fhir/questionnaire-item-control"/>
              <code value="flyover"/>
              <display value="Fly-over"/>
            </coding>
          </valueCodeableConcept>
        </extension>
        <text value="The logical id of the resource, as used in the URL for the resource. Once assigned, this value never changes. The only time that a resource does not have an id is when it is being submitted to the server using a create operation."/>
        <type value="display"/>
      </item>
      <item>
        <linkId value="DocumentManifest.id.value"/>
        <text value="Logical id of this artifact"/>
        <type value="string"/>
        <required value="false"/>
        <repeats value="false"/>
      </item>
    </item>
    <item>
      <extension url="http://hl7.org/fhir/StructureDefinition/questionnaire-maxOccurs">
        <valueInteger value="1"/>
      </extension>
      <linkId value="DocumentManifest.meta"/>
      <text value="Metadata about the resource"/>
      <type value="group"/>
      <required value="false"/>
      <repeats value="true"/>
      <item>
        <extension url="http://hl7.org/fhir/StructureDefinition/questionnaire-itemControl">
          <valueCodeableConcept>
            <coding>
              <system value="http://hl7.org/fhir/questionnaire-item-control"/>
              <code value="flyover"/>
              <display value="Fly-over"/>
            </coding>
          </valueCodeableConcept>
        </extension>
        <text value="The metadata about the resource. This is content that is maintained by the infrastructure. Changes to the content may not always be associated with version changes to the resource."/>
        <type value="display"/>
      </item>
    </item>
    <item>
      <extension url="http://hl7.org/fhir/StructureDefinition/questionnaire-maxOccurs">
        <valueInteger value="1"/>
      </extension>
      <extension url="http://hl7.org/fhir/StructureDefinition/questionnaire-fhirType">
        <valueString value="uri"/>
      </extension>
      <linkId value="DocumentManifest.implicitRules"/>
      <type value="group"/>
      <required value="false"/>
      <repeats value="true"/>
      <item>
        <extension url="http://hl7.org/fhir/StructureDefinition/questionnaire-itemControl">
          <valueCodeableConcept>
            <coding>
              <system value="http://hl7.org/fhir/questionnaire-item-control"/>
              <code value="flyover"/>
              <display value="Fly-over"/>
            </coding>
          </valueCodeableConcept>
        </extension>
        <text value="A reference to a set of rules that were followed when the resource was constructed, and which must be understood when processing the content. Asserting this rule set restricts the content to be only understood by a limited set of trading partners. This inherently limits the usefulness of the data in the long term. However, the existing health eco-system is highly fractured, and not yet ready to define, collect, and exchange data in a generally computable sense. Wherever possible, implementers and/or specification writers should avoid using this element as much as possible."/>
        <type value="display"/>
      </item>
      <item>
        <linkId value="DocumentManifest.implicitRules.value"/>
        <text value="A set of rules under which this content was created"/>
        <type value="string"/>
        <required value="false"/>
        <repeats value="false"/>
      </item>
    </item>
    <item>
      <extension url="http://hl7.org/fhir/StructureDefinition/questionnaire-maxOccurs">
        <valueInteger value="1"/>
      </extension>
      <extension url="http://hl7.org/fhir/StructureDefinition/questionnaire-fhirType">
        <valueString value="code"/>
      </extension>
      <linkId value="DocumentManifest.language"/>
      <type value="group"/>
      <required value="false"/>
      <repeats value="true"/>
      <item>
        <extension url="http://hl7.org/fhir/StructureDefinition/questionnaire-itemControl">
          <valueCodeableConcept>
            <coding>
              <system value="http://hl7.org/fhir/questionnaire-item-control"/>
              <code value="flyover"/>
              <display value="Fly-over"/>
            </coding>
          </valueCodeableConcept>
        </extension>
        <text value="The base language in which the resource is written. Language is provided to support indexing and accessibility (typically, services such as text to speech use the language tag). The html language tag in the narrative applies  to the narrative. The language tag on the resource may be used to specify the language of other presentations generated from the data in the resource  Not all the content has to be in the base language. The Resource.language should not be assumed to apply to the narrative automatically. If a language is specified, it should it also be specified on the div element in the html (see rules in HTML5 for information about the relationship between xml:lang and the html lang attribute)."/>
        <type value="display"/>
      </item>
      <item>
        <linkId value="DocumentManifest.language.value"/>
        <text value="language"/>
        <type value="choice"/>
        <required value="false"/>
        <repeats value="false"/>
      </item>
    </item>
    <item>
      <extension url="http://hl7.org/fhir/StructureDefinition/questionnaire-maxOccurs">
        <valueInteger value="1"/>
      </extension>
      <linkId value="DocumentManifest.text"/>
      <text value="Text summary of the resource, for human interpretation"/>
      <type value="group"/>
      <required value="false"/>
      <repeats value="true"/>
      <item>
        <extension url="http://hl7.org/fhir/StructureDefinition/questionnaire-itemControl">
          <valueCodeableConcept>
            <coding>
              <system value="http://hl7.org/fhir/questionnaire-item-control"/>
              <code value="flyover"/>
              <display value="Fly-over"/>
            </coding>
          </valueCodeableConcept>
        </extension>
        <text value="A human-readable narrative that contains a summary of the resource, and may be used to represent the content of the resource to a human. The narrative need not encode all the structured data, but is required to contain sufficient detail to make it &quot;clinically safe&quot; for a human to just read the narrative. Resource definitions may define what content should be represented in the narrative to ensure clinical safety. Contained resources do not have narrative. Resources that are not contained SHOULD have a narrative. In some cases, a resource may only have text with little or no additional discrete data (as long as all minOccurs=1 elements are satisfied).  This may be necessary for data from legacy systems where information is captured as a &quot;text blob&quot; or where text is additionally entered raw or narrated and encoded in formation is added later."/>
        <type value="display"/>
      </item>
    </item>
    <item>
      <linkId value="DocumentManifest.contained"/>
      <text value="Contained, inline Resources"/>
      <type value="group"/>
      <required value="false"/>
      <repeats value="true"/>
      <item>
        <extension url="http://hl7.org/fhir/StructureDefinition/questionnaire-itemControl">
          <valueCodeableConcept>
            <coding>
              <system value="http://hl7.org/fhir/questionnaire-item-control"/>
              <code value="flyover"/>
              <display value="Fly-over"/>
            </coding>
          </valueCodeableConcept>
        </extension>
        <text value="These resources do not have an independent existence apart from the resource that contains them - they cannot be identified independently, and nor can they have their own independent transaction scope. This should never be done when the content can be identified properly, as once identification is lost, it is extremely difficult (and context dependent) to restore it again."/>
        <type value="display"/>
      </item>
    </item>
    <item>
      <linkId value="DocumentManifest.extension"/>
      <text value="Additional Content defined by implementations"/>
      <type value="group"/>
      <required value="false"/>
      <repeats value="true"/>
      <item>
        <extension url="http://hl7.org/fhir/StructureDefinition/questionnaire-itemControl">
          <valueCodeableConcept>
            <coding>
              <system value="http://hl7.org/fhir/questionnaire-item-control"/>
              <code value="flyover"/>
              <display value="Fly-over"/>
            </coding>
          </valueCodeableConcept>
        </extension>
        <text value="May be used to represent additional information that is not part of the basic definition of the resource. In order to make the use of extensions safe and manageable, there is a strict set of governance  applied to the definition and use of extensions. Though any implementer is allowed to define an extension, there is a set of requirements that SHALL be met as part of the definition of the extension. There can be no stigma associated with the use of extensions by any application, project, or standard - regardless of the institution or jurisdiction that uses or defines the extensions.  The use of extensions is what allows the FHIR specification to retain a core level of simplicity for everyone."/>
        <type value="display"/>
      </item>
    </item>
    <item>
      <linkId value="DocumentManifest.modifierExtension"/>
      <text value="Extensions that cannot be ignored"/>
      <type value="group"/>
      <required value="false"/>
      <repeats value="true"/>
      <item>
        <extension url="http://hl7.org/fhir/StructureDefinition/questionnaire-itemControl">
          <valueCodeableConcept>
            <coding>
              <system value="http://hl7.org/fhir/questionnaire-item-control"/>
              <code value="flyover"/>
              <display value="Fly-over"/>
            </coding>
          </valueCodeableConcept>
        </extension>
        <text value="May be used to represent additional information that is not part of the basic definition of the resource, and that modifies the understanding of the element that contains it. Usually modifier elements provide negation or qualification. In order to make the use of extensions safe and manageable, there is a strict set of governance applied to the definition and use of extensions. Though any implementer is allowed to define an extension, there is a set of requirements that SHALL be met as part of the definition of the extension. Applications processing a resource are required to check for modifier extensions. There can be no stigma associated with the use of extensions by any application, project, or standard - regardless of the institution or jurisdiction that uses or defines the extensions.  The use of extensions is what allows the FHIR specification to retain a core level of simplicity for everyone."/>
        <type value="display"/>
      </item>
    </item>
    <item>
      <extension url="http://hl7.org/fhir/StructureDefinition/questionnaire-maxOccurs">
        <valueInteger value="1"/>
      </extension>
      <extension url="http://hl7.org/fhir/StructureDefinition/questionnaire-fhirType">
        <valueString value="Identifier"/>
      </extension>
      <linkId value="DocumentManifest.masterIdentifier"/>
      <text value="Unique Identifier for the set of documents"/>
      <type value="group"/>
      <required value="false"/>
      <repeats value="true"/>
      <item>
        <extension url="http://hl7.org/fhir/StructureDefinition/questionnaire-itemControl">
          <valueCodeableConcept>
            <coding>
              <system value="http://hl7.org/fhir/questionnaire-item-control"/>
              <code value="flyover"/>
              <display value="Fly-over"/>
            </coding>
          </valueCodeableConcept>
        </extension>
        <text value="A single identifier that uniquely identifies this manifest. Principally used to refer to the manifest in non-FHIR contexts."/>
        <type value="display"/>
      </item>
      <item>
        <linkId value="DocumentManifest.masterIdentifier.label"/>
        <text value="label:"/>
        <type value="string"/>
        <required value="false"/>
        <repeats value="false"/>
      </item>
      <item>
        <linkId value="DocumentManifest.masterIdentifier.system"/>
        <text value="system:"/>
        <type value="string"/>
        <required value="false"/>
        <repeats value="false"/>
      </item>
      <item>
        <linkId value="DocumentManifest.masterIdentifier.value"/>
        <text value="value:"/>
        <type value="string"/>
        <required value="false"/>
        <repeats value="false"/>
      </item>
    </item>
    <item>
      <extension url="http://hl7.org/fhir/StructureDefinition/questionnaire-fhirType">
        <valueString value="Identifier"/>
      </extension>
      <linkId value="DocumentManifest.identifier"/>
      <text value="Other identifiers for the manifest"/>
      <type value="group"/>
      <required value="false"/>
      <repeats value="true"/>
      <item>
        <extension url="http://hl7.org/fhir/StructureDefinition/questionnaire-itemControl">
          <valueCodeableConcept>
            <coding>
              <system value="http://hl7.org/fhir/questionnaire-item-control"/>
              <code value="flyover"/>
              <display value="Fly-over"/>
            </coding>
          </valueCodeableConcept>
        </extension>
        <text value="Other identifiers associated with the document manifest, including version independent  identifiers."/>
        <type value="display"/>
      </item>
      <item>
        <linkId value="DocumentManifest.identifier.label"/>
        <text value="label:"/>
        <type value="string"/>
        <required value="false"/>
        <repeats value="false"/>
      </item>
      <item>
        <linkId value="DocumentManifest.identifier.system"/>
        <text value="system:"/>
        <type value="string"/>
        <required value="false"/>
        <repeats value="false"/>
      </item>
      <item>
        <linkId value="DocumentManifest.identifier.value"/>
        <text value="value:"/>
        <type value="string"/>
        <required value="false"/>
        <repeats value="false"/>
      </item>
    </item>
    <item>
      <extension url="http://hl7.org/fhir/StructureDefinition/questionnaire-maxOccurs">
        <valueInteger value="1"/>
      </extension>
      <linkId value="DocumentManifest.subject"/>
      <text value="The subject of the set of documents"/>
      <type value="group"/>
      <required value="false"/>
      <repeats value="true"/>
      <item>
        <extension url="http://hl7.org/fhir/StructureDefinition/questionnaire-itemControl">
          <valueCodeableConcept>
            <coding>
              <system value="http://hl7.org/fhir/questionnaire-item-control"/>
              <code value="flyover"/>
              <display value="Fly-over"/>
            </coding>
          </valueCodeableConcept>
        </extension>
        <text value="Who or what the set of documents is about. The documents can be about a person, (patient or healthcare practitioner), a device (i.e. machine) or even a group of subjects (such as a document about a herd of farm animals, or a set of patients that share a common exposure). If the documents cross more than one subject, then more than one subject is allowed here (unusual use case)."/>
        <type value="display"/>
      </item>
      <item>
        <linkId value="DocumentManifest.subject._type"/>
        <text value="type"/>
        <type value="choice"/>
        <required value="false"/>
        <repeats value="false"/>
        <options>
          <reference value="#vs2"/>
        </options>
        <item>
          <extension url="http://hl7.org/fhir/StructureDefinition/questionnaire-fhirType">
            <valueString value="Reference"/>
          </extension>
          <linkId value="DocumentManifest.subject._Patient"/>
          <type value="group"/>
          <item>
            <extension url="http://hl7.org/fhir/StructureDefinition/questionnaire-allowedResource">
              <valueCode value="Patient"/>
            </extension>
            <extension url="http://hl7.org/fhir/StructureDefinition/questionnaire-referenceFilter">
              <valueString value="subject=$subj&amp;patient=$subj&amp;encounter=$encounter"/>
            </extension>
            <linkId value="DocumentManifest.subject._Patient.value"/>
            <text value="Patient"/>
            <type value="reference"/>
            <required value="false"/>
            <repeats value="false"/>
          </item>
        </item>
        <item>
          <extension url="http://hl7.org/fhir/StructureDefinition/questionnaire-fhirType">
            <valueString value="Reference"/>
          </extension>
          <linkId value="DocumentManifest.subject._Practitioner"/>
          <type value="group"/>
          <item>
            <extension url="http://hl7.org/fhir/StructureDefinition/questionnaire-allowedResource">
              <valueCode value="Practitioner"/>
            </extension>
            <extension url="http://hl7.org/fhir/StructureDefinition/questionnaire-referenceFilter">
              <valueString value="subject=$subj&amp;patient=$subj&amp;encounter=$encounter"/>
            </extension>
            <linkId value="DocumentManifest.subject._Practitioner.value"/>
            <text value="Practitioner"/>
            <type value="reference"/>
            <required value="false"/>
            <repeats value="false"/>
          </item>
        </item>
        <item>
          <extension url="http://hl7.org/fhir/StructureDefinition/questionnaire-fhirType">
            <valueString value="Reference"/>
          </extension>
          <linkId value="DocumentManifest.subject._Group"/>
          <type value="group"/>
          <item>
            <extension url="http://hl7.org/fhir/StructureDefinition/questionnaire-allowedResource">
              <valueCode value="Group"/>
            </extension>
            <extension url="http://hl7.org/fhir/StructureDefinition/questionnaire-referenceFilter">
              <valueString value="subject=$subj&amp;patient=$subj&amp;encounter=$encounter"/>
            </extension>
            <linkId value="DocumentManifest.subject._Group.value"/>
            <text value="Group"/>
            <type value="reference"/>
            <required value="false"/>
            <repeats value="false"/>
          </item>
        </item>
        <item>
          <extension url="http://hl7.org/fhir/StructureDefinition/questionnaire-fhirType">
            <valueString value="Reference"/>
          </extension>
          <linkId value="DocumentManifest.subject._Device"/>
          <type value="group"/>
          <item>
            <extension url="http://hl7.org/fhir/StructureDefinition/questionnaire-allowedResource">
              <valueCode value="Device"/>
            </extension>
            <extension url="http://hl7.org/fhir/StructureDefinition/questionnaire-referenceFilter">
              <valueString value="subject=$subj&amp;patient=$subj&amp;encounter=$encounter"/>
            </extension>
            <linkId value="DocumentManifest.subject._Device.value"/>
            <text value="Device"/>
            <type value="reference"/>
            <required value="false"/>
            <repeats value="false"/>
          </item>
        </item>
      </item>
    </item>
    <item>
      <linkId value="DocumentManifest.recipient"/>
      <text value="Intended to get notified about this set of documents"/>
      <type value="group"/>
      <required value="false"/>
      <repeats value="true"/>
      <item>
        <extension url="http://hl7.org/fhir/StructureDefinition/questionnaire-itemControl">
          <valueCodeableConcept>
            <coding>
              <system value="http://hl7.org/fhir/questionnaire-item-control"/>
              <code value="flyover"/>
              <display value="Fly-over"/>
            </coding>
          </valueCodeableConcept>
        </extension>
        <text value="A patient, practitioner, or organization for which this set of documents is intended. How the recipient receives the document set or is notified of it is up to the implementation. This element is just a statement of intent. If the recipient is a person, and it is not known whether the person is a patient or a practitioner, RelatedPerson would be the default choice."/>
        <type value="display"/>
      </item>
      <item>
        <linkId value="DocumentManifest.recipient._type"/>
        <text value="type"/>
        <type value="choice"/>
        <required value="false"/>
        <repeats value="false"/>
        <options>
          <reference value="#vs3"/>
        </options>
        <item>
          <extension url="http://hl7.org/fhir/StructureDefinition/questionnaire-fhirType">
            <valueString value="Reference"/>
          </extension>
          <linkId value="DocumentManifest.recipient._Patient"/>
          <type value="group"/>
          <item>
            <extension url="http://hl7.org/fhir/StructureDefinition/questionnaire-allowedResource">
              <valueCode value="Patient"/>
            </extension>
            <extension url="http://hl7.org/fhir/StructureDefinition/questionnaire-referenceFilter">
              <valueString value="subject=$subj&amp;patient=$subj&amp;encounter=$encounter"/>
            </extension>
            <linkId value="DocumentManifest.recipient._Patient.value"/>
            <text value="Patient"/>
            <type value="reference"/>
            <required value="false"/>
            <repeats value="false"/>
          </item>
        </item>
        <item>
          <extension url="http://hl7.org/fhir/StructureDefinition/questionnaire-fhirType">
            <valueString value="Reference"/>
          </extension>
          <linkId value="DocumentManifest.recipient._Practitioner"/>
          <type value="group"/>
          <item>
            <extension url="http://hl7.org/fhir/StructureDefinition/questionnaire-allowedResource">
              <valueCode value="Practitioner"/>
            </extension>
            <extension url="http://hl7.org/fhir/StructureDefinition/questionnaire-referenceFilter">
              <valueString value="subject=$subj&amp;patient=$subj&amp;encounter=$encounter"/>
            </extension>
            <linkId value="DocumentManifest.recipient._Practitioner.value"/>
            <text value="Practitioner"/>
            <type value="reference"/>
            <required value="false"/>
            <repeats value="false"/>
          </item>
        </item>
        <item>
          <extension url="http://hl7.org/fhir/StructureDefinition/questionnaire-fhirType">
            <valueString value="Reference"/>
          </extension>
          <linkId value="DocumentManifest.recipient._RelatedPerson"/>
          <type value="group"/>
          <item>
            <extension url="http://hl7.org/fhir/StructureDefinition/questionnaire-allowedResource">
              <valueCode value="RelatedPerson"/>
            </extension>
            <extension url="http://hl7.org/fhir/StructureDefinition/questionnaire-referenceFilter">
              <valueString value="subject=$subj&amp;patient=$subj&amp;encounter=$encounter"/>
            </extension>
            <linkId value="DocumentManifest.recipient._RelatedPerson.value"/>
            <text value="RelatedPerson"/>
            <type value="reference"/>
            <required value="false"/>
            <repeats value="false"/>
          </item>
        </item>
        <item>
          <extension url="http://hl7.org/fhir/StructureDefinition/questionnaire-fhirType">
            <valueString value="Reference"/>
          </extension>
          <linkId value="DocumentManifest.recipient._Organization"/>
          <type value="group"/>
          <item>
            <extension url="http://hl7.org/fhir/StructureDefinition/questionnaire-allowedResource">
              <valueCode value="Organization"/>
            </extension>
            <extension url="http://hl7.org/fhir/StructureDefinition/questionnaire-referenceFilter">
              <valueString value="subject=$subj&amp;patient=$subj&amp;encounter=$encounter"/>
            </extension>
            <linkId value="DocumentManifest.recipient._Organization.value"/>
            <text value="Organization"/>
            <type value="reference"/>
            <required value="false"/>
            <repeats value="false"/>
          </item>
        </item>
      </item>
    </item>
    <item>
      <extension url="http://hl7.org/fhir/StructureDefinition/questionnaire-maxOccurs">
        <valueInteger value="1"/>
      </extension>
      <extension url="http://hl7.org/fhir/StructureDefinition/questionnaire-fhirType">
        <valueString value="CodeableConcept"/>
      </extension>
      <linkId value="DocumentManifest.type"/>
      <text value="Kind of document set"/>
      <type value="group"/>
      <required value="false"/>
      <repeats value="true"/>
      <item>
        <extension url="http://hl7.org/fhir/StructureDefinition/questionnaire-itemControl">
          <valueCodeableConcept>
            <coding>
              <system value="http://hl7.org/fhir/questionnaire-item-control"/>
              <code value="flyover"/>
              <display value="Fly-over"/>
            </coding>
          </valueCodeableConcept>
        </extension>
        <text value="Specifies the kind of this set of documents (e.g. Patient Summary, Discharge Summary, Prescription, etc.). The type of a set of documents may be the same as one of the documents in it - especially if there is only one - but it may be wider."/>
        <type value="display"/>
      </item>
      <item>
        <linkId value="DocumentManifest.type.coding"/>
        <text value="code:"/>
        <type value="open-choice"/>
        <required value="false"/>
        <repeats value="false"/>
      </item>
      <item>
        <linkId value="DocumentManifest.type.text"/>
        <text value="text:"/>
        <type value="string"/>
        <required value="false"/>
        <repeats value="false"/>
      </item>
    </item>
    <item>
      <linkId value="DocumentManifest.author"/>
      <text value="Who and/or what authored the manifest"/>
      <type value="group"/>
      <required value="false"/>
      <repeats value="true"/>
      <item>
        <extension url="http://hl7.org/fhir/StructureDefinition/questionnaire-itemControl">
          <valueCodeableConcept>
            <coding>
              <system value="http://hl7.org/fhir/questionnaire-item-control"/>
              <code value="flyover"/>
              <display value="Fly-over"/>
            </coding>
          </valueCodeableConcept>
        </extension>
        <text value="Identifies who is responsible for creating the manifest, and adding  documents to it. Not necessarily who did the actual data entry (i.e. typist) or who was the source (informant)."/>
        <type value="display"/>
      </item>
      <item>
        <linkId value="DocumentManifest.author._type"/>
        <text value="type"/>
        <type value="choice"/>
        <required value="false"/>
        <repeats value="false"/>
        <options>
          <reference value="#vs4"/>
        </options>
        <item>
          <extension url="http://hl7.org/fhir/StructureDefinition/questionnaire-fhirType">
            <valueString value="Reference"/>
          </extension>
          <linkId value="DocumentManifest.author._Practitioner"/>
          <type value="group"/>
          <item>
            <extension url="http://hl7.org/fhir/StructureDefinition/questionnaire-allowedResource">
              <valueCode value="Practitioner"/>
            </extension>
            <extension url="http://hl7.org/fhir/StructureDefinition/questionnaire-referenceFilter">
              <valueString value="subject=$subj&amp;patient=$subj&amp;encounter=$encounter"/>
            </extension>
            <linkId value="DocumentManifest.author._Practitioner.value"/>
            <text value="Practitioner"/>
            <type value="reference"/>
            <required value="false"/>
            <repeats value="false"/>
          </item>
        </item>
        <item>
          <extension url="http://hl7.org/fhir/StructureDefinition/questionnaire-fhirType">
            <valueString value="Reference"/>
          </extension>
          <linkId value="DocumentManifest.author._Organization"/>
          <type value="group"/>
          <item>
            <extension url="http://hl7.org/fhir/StructureDefinition/questionnaire-allowedResource">
              <valueCode value="Organization"/>
            </extension>
            <extension url="http://hl7.org/fhir/StructureDefinition/questionnaire-referenceFilter">
              <valueString value="subject=$subj&amp;patient=$subj&amp;encounter=$encounter"/>
            </extension>
            <linkId value="DocumentManifest.author._Organization.value"/>
            <text value="Organization"/>
            <type value="reference"/>
            <required value="false"/>
            <repeats value="false"/>
          </item>
        </item>
        <item>
          <extension url="http://hl7.org/fhir/StructureDefinition/questionnaire-fhirType">
            <valueString value="Reference"/>
          </extension>
          <linkId value="DocumentManifest.author._Device"/>
          <type value="group"/>
          <item>
            <extension url="http://hl7.org/fhir/StructureDefinition/questionnaire-allowedResource">
              <valueCode value="Device"/>
            </extension>
            <extension url="http://hl7.org/fhir/StructureDefinition/questionnaire-referenceFilter">
              <valueString value="subject=$subj&amp;patient=$subj&amp;encounter=$encounter"/>
            </extension>
            <linkId value="DocumentManifest.author._Device.value"/>
            <text value="Device"/>
            <type value="reference"/>
            <required value="false"/>
            <repeats value="false"/>
          </item>
        </item>
        <item>
          <extension url="http://hl7.org/fhir/StructureDefinition/questionnaire-fhirType">
            <valueString value="Reference"/>
          </extension>
          <linkId value="DocumentManifest.author._Patient"/>
          <type value="group"/>
          <item>
            <extension url="http://hl7.org/fhir/StructureDefinition/questionnaire-allowedResource">
              <valueCode value="Patient"/>
            </extension>
            <extension url="http://hl7.org/fhir/StructureDefinition/questionnaire-referenceFilter">
              <valueString value="subject=$subj&amp;patient=$subj&amp;encounter=$encounter"/>
            </extension>
            <linkId value="DocumentManifest.author._Patient.value"/>
            <text value="Patient"/>
            <type value="reference"/>
            <required value="false"/>
            <repeats value="false"/>
          </item>
        </item>
        <item>
          <extension url="http://hl7.org/fhir/StructureDefinition/questionnaire-fhirType">
            <valueString value="Reference"/>
          </extension>
          <linkId value="DocumentManifest.author._RelatedPerson"/>
          <type value="group"/>
          <item>
            <extension url="http://hl7.org/fhir/StructureDefinition/questionnaire-allowedResource">
              <valueCode value="RelatedPerson"/>
            </extension>
            <extension url="http://hl7.org/fhir/StructureDefinition/questionnaire-referenceFilter">
              <valueString value="subject=$subj&amp;patient=$subj&amp;encounter=$encounter"/>
            </extension>
            <linkId value="DocumentManifest.author._RelatedPerson.value"/>
            <text value="RelatedPerson"/>
            <type value="reference"/>
            <required value="false"/>
            <repeats value="false"/>
          </item>
        </item>
      </item>
    </item>
    <item>
      <extension url="http://hl7.org/fhir/StructureDefinition/questionnaire-maxOccurs">
        <valueInteger value="1"/>
      </extension>
      <extension url="http://hl7.org/fhir/StructureDefinition/questionnaire-fhirType">
        <valueString value="datetime"/>
      </extension>
      <linkId value="DocumentManifest.created"/>
      <type value="group"/>
      <required value="false"/>
      <repeats value="true"/>
      <item>
        <extension url="http://hl7.org/fhir/StructureDefinition/questionnaire-itemControl">
          <valueCodeableConcept>
            <coding>
              <system value="http://hl7.org/fhir/questionnaire-item-control"/>
              <code value="flyover"/>
              <display value="Fly-over"/>
            </coding>
          </valueCodeableConcept>
        </extension>
        <text value="When the document manifest was created for submission to the server (not necessarily the same thing as the actual resource last modified time, since it may be modified, replicated, etc.). Creation time is used for tracking, organizing versions and searching. This is the creation time of the document set, not the documents on which it is based."/>
        <type value="display"/>
      </item>
      <item>
        <linkId value="DocumentManifest.created.value"/>
        <text value="When this document manifest created"/>
        <type value="dateTime"/>
        <required value="false"/>
        <repeats value="false"/>
      </item>
    </item>
    <item>
      <extension url="http://hl7.org/fhir/StructureDefinition/questionnaire-maxOccurs">
        <valueInteger value="1"/>
      </extension>
      <extension url="http://hl7.org/fhir/StructureDefinition/questionnaire-fhirType">
        <valueString value="uri"/>
      </extension>
      <linkId value="DocumentManifest.source"/>
      <type value="group"/>
      <required value="false"/>
      <repeats value="true"/>
      <item>
        <extension url="http://hl7.org/fhir/StructureDefinition/questionnaire-itemControl">
          <valueCodeableConcept>
            <coding>
              <system value="http://hl7.org/fhir/questionnaire-item-control"/>
              <code value="flyover"/>
              <display value="Fly-over"/>
            </coding>
          </valueCodeableConcept>
        </extension>
        <text value="Identifies the source system, application, or software that produced the document manifest."/>
        <type value="display"/>
      </item>
      <item>
        <linkId value="DocumentManifest.source.value"/>
        <text value="The source system/application/software"/>
        <type value="string"/>
        <required value="false"/>
        <repeats value="false"/>
      </item>
    </item>
    <item>
      <extension url="http://hl7.org/fhir/StructureDefinition/questionnaire-minOccurs">
        <valueInteger value="1"/>
      </extension>
      <extension url="http://hl7.org/fhir/StructureDefinition/questionnaire-maxOccurs">
        <valueInteger value="1"/>
      </extension>
      <extension url="http://hl7.org/fhir/StructureDefinition/questionnaire-fhirType">
        <valueString value="code"/>
      </extension>
      <linkId value="DocumentManifest.status"/>
      <type value="group"/>
      <required value="true"/>
      <repeats value="true"/>
      <item>
        <extension url="http://hl7.org/fhir/StructureDefinition/questionnaire-itemControl">
          <valueCodeableConcept>
            <coding>
              <system value="http://hl7.org/fhir/questionnaire-item-control"/>
              <code value="flyover"/>
              <display value="Fly-over"/>
            </coding>
          </valueCodeableConcept>
        </extension>
        <text value="The status of this document manifest."/>
        <type value="display"/>
      </item>
      <item>
        <linkId value="DocumentManifest.status.value"/>
        <text value="status"/>
        <type value="choice"/>
        <required value="false"/>
        <repeats value="false"/>
      </item>
    </item>
    <item>
      <extension url="http://hl7.org/fhir/StructureDefinition/questionnaire-maxOccurs">
        <valueInteger value="1"/>
      </extension>
      <extension url="http://hl7.org/fhir/StructureDefinition/questionnaire-fhirType">
        <valueString value="string"/>
      </extension>
      <linkId value="DocumentManifest.description"/>
      <type value="group"/>
      <required value="false"/>
      <repeats value="true"/>
      <item>
        <extension url="http://hl7.org/fhir/StructureDefinition/questionnaire-itemControl">
          <valueCodeableConcept>
            <coding>
              <system value="http://hl7.org/fhir/questionnaire-item-control"/>
              <code value="flyover"/>
              <display value="Fly-over"/>
            </coding>
          </valueCodeableConcept>
        </extension>
        <text value="Human-readable description of the source document. This is sometimes known as the &quot;title&quot;. What the document is about, rather than a terse summary of the document. It is commonly the case that records do not have a title and are collectively referred to by the display name of Record code (e.g. a &quot;consultation&quot; or &quot;progress note&quot;)."/>
        <type value="display"/>
      </item>
      <item>
        <linkId value="DocumentManifest.description.value"/>
        <text value="Human-readable description (title)"/>
        <type value="string"/>
        <required value="false"/>
        <repeats value="false"/>
      </item>
    </item>
    <item>
      <extension url="http://hl7.org/fhir/StructureDefinition/questionnaire-minOccurs">
        <valueInteger value="1"/>
      </extension>
      <linkId value="DocumentManifest.content"/>
      <text value="The items included"/>
      <type value="group"/>
      <required value="true"/>
      <repeats value="true"/>
      <item>
        <extension url="http://hl7.org/fhir/StructureDefinition/questionnaire-itemControl">
          <valueCodeableConcept>
            <coding>
              <system value="http://hl7.org/fhir/questionnaire-item-control"/>
              <code value="flyover"/>
              <display value="Fly-over"/>
            </coding>
          </valueCodeableConcept>
        </extension>
        <text value="The list of Documents included in the manifest."/>
        <type value="display"/>
      </item>
      <item>
        <extension url="http://hl7.org/fhir/StructureDefinition/questionnaire-maxOccurs">
          <valueInteger value="1"/>
        </extension>
        <extension url="http://hl7.org/fhir/StructureDefinition/questionnaire-fhirType">
          <valueString value="string"/>
        </extension>
        <linkId value="DocumentManifest.content.id"/>
        <type value="group"/>
        <required value="false"/>
        <repeats value="true"/>
        <item>
          <extension url="http://hl7.org/fhir/StructureDefinition/questionnaire-itemControl">
            <valueCodeableConcept>
              <coding>
                <system value="http://hl7.org/fhir/questionnaire-item-control"/>
                <code value="flyover"/>
                <display value="Fly-over"/>
              </coding>
            </valueCodeableConcept>
          </extension>
          <text value="unique id for the element within a resource (for internal references). This may be any string value that does not contain spaces."/>
          <type value="display"/>
        </item>
        <item>
          <linkId value="DocumentManifest.content.id.value"/>
          <text value="xml:id (or equivalent in JSON)"/>
          <type value="string"/>
          <required value="false"/>
          <repeats value="false"/>
        </item>
      </item>
      <item>
        <linkId value="DocumentManifest.content.extension"/>
        <text value="Additional Content defined by implementations"/>
        <type value="group"/>
        <required value="false"/>
        <repeats value="true"/>
        <item>
          <extension url="http://hl7.org/fhir/StructureDefinition/questionnaire-itemControl">
            <valueCodeableConcept>
              <coding>
                <system value="http://hl7.org/fhir/questionnaire-item-control"/>
                <code value="flyover"/>
                <display value="Fly-over"/>
              </coding>
            </valueCodeableConcept>
          </extension>
          <text value="May be used to represent additional information that is not part of the basic definition of the element. In order to make the use of extensions safe and manageable, there is a strict set of governance  applied to the definition and use of extensions. Though any implementer is allowed to define an extension, there is a set of requirements that SHALL be met as part of the definition of the extension. There can be no stigma associated with the use of extensions by any application, project, or standard - regardless of the institution or jurisdiction that uses or defines the extensions.  The use of extensions is what allows the FHIR specification to retain a core level of simplicity for everyone."/>
          <type value="display"/>
        </item>
      </item>
      <item>
        <linkId value="DocumentManifest.content.modifierExtension"/>
        <text value="Extensions that cannot be ignored"/>
        <type value="group"/>
        <required value="false"/>
        <repeats value="true"/>
        <item>
          <extension url="http://hl7.org/fhir/StructureDefinition/questionnaire-itemControl">
            <valueCodeableConcept>
              <coding>
                <system value="http://hl7.org/fhir/questionnaire-item-control"/>
                <code value="flyover"/>
                <display value="Fly-over"/>
              </coding>
            </valueCodeableConcept>
          </extension>
          <text value="May be used to represent additional information that is not part of the basic definition of the element, and that modifies the understanding of the element that contains it. Usually modifier elements provide negation or qualification. In order to make the use of extensions safe and manageable, there is a strict set of governance applied to the definition and use of extensions. Though any implementer is allowed to define an extension, there is a set of requirements that SHALL be met as part of the definition of the extension. Applications processing a resource are required to check for modifier extensions. There can be no stigma associated with the use of extensions by any application, project, or standard - regardless of the institution or jurisdiction that uses or defines the extensions.  The use of extensions is what allows the FHIR specification to retain a core level of simplicity for everyone."/>
          <type value="display"/>
        </item>
      </item>
      <item>
        <extension url="http://hl7.org/fhir/StructureDefinition/questionnaire-minOccurs">
          <valueInteger value="1"/>
        </extension>
        <extension url="http://hl7.org/fhir/StructureDefinition/questionnaire-maxOccurs">
          <valueInteger value="1"/>
        </extension>
        <linkId value="DocumentManifest.content.p[x]"/>
        <text value="Contents of this set of documents"/>
        <type value="group"/>
        <required value="true"/>
        <repeats value="true"/>
        <item>
          <extension url="http://hl7.org/fhir/StructureDefinition/questionnaire-itemControl">
            <valueCodeableConcept>
              <coding>
                <system value="http://hl7.org/fhir/questionnaire-item-control"/>
                <code value="flyover"/>
                <display value="Fly-over"/>
              </coding>
            </valueCodeableConcept>
          </extension>
          <text value="The list of references to document content, or Attachment that consist of the parts of this document manifest. Usually, these would be document references, but direct references to Media or Attachments are also allowed. The intended focus of the DocumentManifest is for the reference to target either DocumentReference or Media Resources, and most implementation guides will restrict to these resources. The reference is to &quot;Any&quot; to support EN 13606 usage, where an extract is DocumentManifest that references  List and Composition resources."/>
          <type value="display"/>
        </item>
        <item>
          <linkId value="DocumentManifest.content.p[x]._type"/>
          <text value="type"/>
          <type value="choice"/>
          <required value="false"/>
          <repeats value="false"/>
          <options>
            <reference value="#vs5"/>
          </options>
          <item>
            <extension url="http://hl7.org/fhir/StructureDefinition/questionnaire-fhirType">
              <valueString value="Attachment"/>
            </extension>
            <linkId value="DocumentManifest.content.p[x]._Attachment"/>
            <text value="Attachment"/>
            <type value="group"/>
          </item>
          <item>
            <extension url="http://hl7.org/fhir/StructureDefinition/questionnaire-fhirType">
              <valueString value="Reference"/>
            </extension>
            <linkId value="DocumentManifest.content.p[x]._Resource"/>
            <type value="group"/>
            <item>
              <extension url="http://hl7.org/fhir/StructureDefinition/questionnaire-allowedResource">
                <valueCode value="Resource"/>
              </extension>
              <extension url="http://hl7.org/fhir/StructureDefinition/questionnaire-referenceFilter">
                <valueString value="subject=$subj&amp;patient=$subj&amp;encounter=$encounter"/>
              </extension>
              <linkId value="DocumentManifest.content.p[x]._Resource.value"/>
              <text value="Resource"/>
              <type value="reference"/>
              <required value="false"/>
              <repeats value="false"/>
            </item>
          </item>
        </item>
      </item>
    </item>
    <item>
      <linkId value="DocumentManifest.related"/>
      <text value="Related things"/>
      <type value="group"/>
      <required value="false"/>
      <repeats value="true"/>
      <item>
        <text value="May be identifiers or resources that caused the DocumentManifest to be created."/>
        <type value="display"/>
      </item>
      <item>
        <extension url="http://hl7.org/fhir/StructureDefinition/questionnaire-itemControl">
          <valueCodeableConcept>
            <coding>
              <system value="http://hl7.org/fhir/questionnaire-item-control"/>
              <code value="flyover"/>
              <display value="Fly-over"/>
            </coding>
          </valueCodeableConcept>
        </extension>
        <text value="Related identifiers or resources associated with the DocumentManifest."/>
        <type value="display"/>
      </item>
      <item>
        <extension url="http://hl7.org/fhir/StructureDefinition/questionnaire-maxOccurs">
          <valueInteger value="1"/>
        </extension>
        <extension url="http://hl7.org/fhir/StructureDefinition/questionnaire-fhirType">
          <valueString value="string"/>
        </extension>
        <linkId value="DocumentManifest.related.id"/>
        <type value="group"/>
        <required value="false"/>
        <repeats value="true"/>
        <item>
          <extension url="http://hl7.org/fhir/StructureDefinition/questionnaire-itemControl">
            <valueCodeableConcept>
              <coding>
                <system value="http://hl7.org/fhir/questionnaire-item-control"/>
                <code value="flyover"/>
                <display value="Fly-over"/>
              </coding>
            </valueCodeableConcept>
          </extension>
          <text value="unique id for the element within a resource (for internal references). This may be any string value that does not contain spaces."/>
          <type value="display"/>
        </item>
        <item>
          <linkId value="DocumentManifest.related.id.value"/>
          <text value="xml:id (or equivalent in JSON)"/>
          <type value="string"/>
          <required value="false"/>
          <repeats value="false"/>
        </item>
      </item>
      <item>
        <linkId value="DocumentManifest.related.extension"/>
        <text value="Additional Content defined by implementations"/>
        <type value="group"/>
        <required value="false"/>
        <repeats value="true"/>
        <item>
          <extension url="http://hl7.org/fhir/StructureDefinition/questionnaire-itemControl">
            <valueCodeableConcept>
              <coding>
                <system value="http://hl7.org/fhir/questionnaire-item-control"/>
                <code value="flyover"/>
                <display value="Fly-over"/>
              </coding>
            </valueCodeableConcept>
          </extension>
          <text value="May be used to represent additional information that is not part of the basic definition of the element. In order to make the use of extensions safe and manageable, there is a strict set of governance  applied to the definition and use of extensions. Though any implementer is allowed to define an extension, there is a set of requirements that SHALL be met as part of the definition of the extension. There can be no stigma associated with the use of extensions by any application, project, or standard - regardless of the institution or jurisdiction that uses or defines the extensions.  The use of extensions is what allows the FHIR specification to retain a core level of simplicity for everyone."/>
          <type value="display"/>
        </item>
      </item>
      <item>
        <linkId value="DocumentManifest.related.modifierExtension"/>
        <text value="Extensions that cannot be ignored"/>
        <type value="group"/>
        <required value="false"/>
        <repeats value="true"/>
        <item>
          <extension url="http://hl7.org/fhir/StructureDefinition/questionnaire-itemControl">
            <valueCodeableConcept>
              <coding>
                <system value="http://hl7.org/fhir/questionnaire-item-control"/>
                <code value="flyover"/>
                <display value="Fly-over"/>
              </coding>
            </valueCodeableConcept>
          </extension>
          <text value="May be used to represent additional information that is not part of the basic definition of the element, and that modifies the understanding of the element that contains it. Usually modifier elements provide negation or qualification. In order to make the use of extensions safe and manageable, there is a strict set of governance applied to the definition and use of extensions. Though any implementer is allowed to define an extension, there is a set of requirements that SHALL be met as part of the definition of the extension. Applications processing a resource are required to check for modifier extensions. There can be no stigma associated with the use of extensions by any application, project, or standard - regardless of the institution or jurisdiction that uses or defines the extensions.  The use of extensions is what allows the FHIR specification to retain a core level of simplicity for everyone."/>
          <type value="display"/>
        </item>
      </item>
      <item>
        <extension url="http://hl7.org/fhir/StructureDefinition/questionnaire-maxOccurs">
          <valueInteger value="1"/>
        </extension>
        <extension url="http://hl7.org/fhir/StructureDefinition/questionnaire-fhirType">
          <valueString value="Identifier"/>
        </extension>
        <linkId value="DocumentManifest.related.identifier"/>
        <text value="Identifiers of things that are related"/>
        <type value="group"/>
        <required value="false"/>
        <repeats value="true"/>
        <item>
          <extension url="http://hl7.org/fhir/StructureDefinition/questionnaire-itemControl">
            <valueCodeableConcept>
              <coding>
                <system value="http://hl7.org/fhir/questionnaire-item-control"/>
                <code value="flyover"/>
                <display value="Fly-over"/>
              </coding>
            </valueCodeableConcept>
          </extension>
          <text value="Related identifier to this DocumentManifest.  For example, Order numbers, accession numbers, XDW workflow numbers. If both identifier and ref elements are present they shall refer to the same thing."/>
          <type value="display"/>
        </item>
        <item>
          <linkId value="DocumentManifest.related.identifier.label"/>
          <text value="label:"/>
          <type value="string"/>
          <required value="false"/>
          <repeats value="false"/>
        </item>
        <item>
          <linkId value="DocumentManifest.related.identifier.system"/>
          <text value="system:"/>
          <type value="string"/>
          <required value="false"/>
          <repeats value="false"/>
        </item>
        <item>
          <linkId value="DocumentManifest.related.identifier.value"/>
          <text value="value:"/>
          <type value="string"/>
          <required value="false"/>
          <repeats value="false"/>
        </item>
      </item>
      <item>
        <extension url="http://hl7.org/fhir/StructureDefinition/questionnaire-maxOccurs">
          <valueInteger value="1"/>
        </extension>
        <extension url="http://hl7.org/fhir/StructureDefinition/questionnaire-fhirType">
          <valueString value="Reference"/>
        </extension>
        <linkId value="DocumentManifest.related.ref"/>
        <type value="group"/>
        <required value="false"/>
        <repeats value="true"/>
        <item>
          <extension url="http://hl7.org/fhir/StructureDefinition/questionnaire-itemControl">
            <valueCodeableConcept>
              <coding>
                <system value="http://hl7.org/fhir/questionnaire-item-control"/>
                <code value="flyover"/>
                <display value="Fly-over"/>
              </coding>
            </valueCodeableConcept>
          </extension>
          <text value="Related Resource to this DocumentManifest. For example, Order, DiagnosticRequest,  Procedure, EligibilityRequest, etc. If both identifier and ref elements are present they shall refer to the same thing."/>
          <type value="display"/>
        </item>
        <item>
          <extension url="http://hl7.org/fhir/StructureDefinition/questionnaire-allowedResource">
            <valueCode value="Resource"/>
          </extension>
          <extension url="http://hl7.org/fhir/StructureDefinition/questionnaire-referenceFilter">
            <valueString value="subject=$subj&amp;patient=$subj&amp;encounter=$encounter"/>
          </extension>
          <linkId value="DocumentManifest.related.ref.value"/>
          <text value="Related Resource"/>
          <type value="reference"/>
          <required value="false"/>
          <repeats value="false"/>
        </item>
      </item>
    </item>
  </item>
</Questionnaire>