<?xml version="1.0" encoding="UTF-8"?>

<Questionnaire xmlns="http://hl7.org/fhir">
  <id value="qs1"/>
  <contained>
    <ValueSet>
      <id value="vs2"/>
      <name value="Type options for DiagnosticReport.subject"/>
      <status value="active"/>
      <description value="Type options for DiagnosticReport.subject"/>
      <expansion>
        <identifier value="urn:uuid:8e2ab438-1b92-4398-a03c-e0338600c9e2"/>
        <timestamp value="2016-10-27T16:27:04+00:00"/>
        <contains>
          <system value="http://hl7.org/fhir/resource-types"/>
          <code value="Patient"/>
          <display value="Patient"/>
        </contains>
        <contains>
          <system value="http://hl7.org/fhir/resource-types"/>
          <code value="Group"/>
          <display value="Group"/>
        </contains>
        <contains>
          <system value="http://hl7.org/fhir/resource-types"/>
          <code value="Device"/>
          <display value="Device"/>
        </contains>
        <contains>
          <system value="http://hl7.org/fhir/resource-types"/>
          <code value="Location"/>
          <display value="Location"/>
        </contains>
      </expansion>
    </ValueSet>
  </contained>
  <contained>
    <ValueSet>
      <id value="vs3"/>
      <name value="Type options for DiagnosticReport.effective[x]"/>
      <status value="active"/>
      <description value="Type options for DiagnosticReport.effective[x]"/>
      <expansion>
        <identifier value="urn:uuid:a869be37-20e3-4148-b063-6fe95034d33e"/>
        <timestamp value="2016-10-27T16:27:04+00:00"/>
        <contains>
          <system value="http://hl7.org/fhir/data-types"/>
          <code value="dateTime"/>
          <display value="dateTime"/>
        </contains>
        <contains>
          <system value="http://hl7.org/fhir/data-types"/>
          <code value="Period"/>
          <display value="Period"/>
        </contains>
      </expansion>
    </ValueSet>
  </contained>
  <contained>
    <ValueSet>
      <id value="vs4"/>
      <name value="Type options for DiagnosticReport.performer"/>
      <status value="active"/>
      <description value="Type options for DiagnosticReport.performer"/>
      <expansion>
        <identifier value="urn:uuid:0ecb2b7e-1bd4-4fbe-abe8-ef64402db914"/>
        <timestamp value="2016-10-27T16:27:04+00:00"/>
        <contains>
          <system value="http://hl7.org/fhir/resource-types"/>
          <code value="Practitioner"/>
          <display value="Practitioner"/>
        </contains>
        <contains>
          <system value="http://hl7.org/fhir/resource-types"/>
          <code value="Organization"/>
          <display value="Organization"/>
        </contains>
      </expansion>
    </ValueSet>
  </contained>
  <contained>
    <ValueSet>
      <id value="vs5"/>
      <name value="Type options for DiagnosticReport.request"/>
      <status value="active"/>
      <description value="Type options for DiagnosticReport.request"/>
      <expansion>
        <identifier value="urn:uuid:8597d86b-d024-4998-8ada-60c385a38893"/>
        <timestamp value="2016-10-27T16:27:04+00:00"/>
        <contains>
          <system value="http://hl7.org/fhir/resource-types"/>
          <code value="DiagnosticRequest"/>
          <display value="DiagnosticRequest"/>
        </contains>
        <contains>
          <system value="http://hl7.org/fhir/resource-types"/>
          <code value="ProcedureRequest"/>
          <display value="ProcedureRequest"/>
        </contains>
        <contains>
          <system value="http://hl7.org/fhir/resource-types"/>
          <code value="ReferralRequest"/>
          <display value="ReferralRequest"/>
        </contains>
      </expansion>
    </ValueSet>
  </contained>
  <contained>
    <ValueSet>
      <id value="vs6"/>
      <name value="Type options for DiagnosticReport.imagingStudy"/>
      <status value="active"/>
      <description value="Type options for DiagnosticReport.imagingStudy"/>
      <expansion>
        <identifier value="urn:uuid:e4e46353-551f-4786-b5b3-c68e54b7389f"/>
        <timestamp value="2016-10-27T16:27:04+00:00"/>
        <contains>
          <system value="http://hl7.org/fhir/resource-types"/>
          <code value="ImagingStudy"/>
          <display value="ImagingStudy"/>
        </contains>
        <contains>
          <system value="http://hl7.org/fhir/resource-types"/>
          <code value="ImagingManifest"/>
          <display value="ImagingManifest"/>
        </contains>
      </expansion>
    </ValueSet>
  </contained>
  <identifier>
    <system value="urn:ietf:rfc:3986"/>
  </identifier>
  <status value="draft"/>
  <date value="2012-05-12T00:00:00+00:00"/>
  <publisher value="Grahame Grieve"/>
  <item>
    <extension url="http://hl7.org/fhir/StructureDefinition/questionnaire-minOccurs">
      <valueInteger value="1"/>
    </extension>
    <extension url="http://hl7.org/fhir/StructureDefinition/questionnaire-maxOccurs">
      <valueInteger value="1"/>
    </extension>
    <linkId value="DiagnosticReport"/>
    <text value="Lipid Lab Report"/>
    <type value="group"/>
    <required value="true"/>
    <repeats value="false"/>
    <item>
      <text value="In this profile, mustSupport means that authoring systems must include the ability to report these elements, and processing systems must cater for them by either displaying them to the user or considering them appropriately in decision support systems."/>
      <type value="display"/>
    </item>
    <item>
      <extension url="http://hl7.org/fhir/StructureDefinition/questionnaire-itemControl">
        <valueCodeableConcept>
          <coding>
            <system value="http://hl7.org/fhir/questionnaire-item-control"/>
            <code value="flyover"/>
            <display value="Fly-over"/>
          </coding>
        </valueCodeableConcept>
      </extension>
      <text value="The findings and interpretation of a general lipd lab profile."/>
      <type value="display"/>
    </item>
    <item>
      <extension url="http://hl7.org/fhir/StructureDefinition/questionnaire-maxOccurs">
        <valueInteger value="1"/>
      </extension>
      <extension url="http://hl7.org/fhir/StructureDefinition/questionnaire-fhirType">
        <valueString value="string"/>
      </extension>
      <linkId value="DiagnosticReport.id"/>
      <type value="group"/>
      <required value="false"/>
      <repeats value="true"/>
      <item>
        <extension url="http://hl7.org/fhir/StructureDefinition/questionnaire-itemControl">
          <valueCodeableConcept>
            <coding>
              <system value="http://hl7.org/fhir/questionnaire-item-control"/>
              <code value="flyover"/>
              <display value="Fly-over"/>
            </coding>
          </valueCodeableConcept>
        </extension>
        <text value="The logical id of the resource, as used in the URL for the resource. Once assigned, this value never changes. The only time that a resource does not have an id is when it is being submitted to the server using a create operation."/>
        <type value="display"/>
      </item>
      <item>
        <linkId value="DiagnosticReport.id.value"/>
        <text value="Logical id of this artifact"/>
        <type value="string"/>
        <required value="false"/>
        <repeats value="false"/>
      </item>
    </item>
    <item>
      <extension url="http://hl7.org/fhir/StructureDefinition/questionnaire-maxOccurs">
        <valueInteger value="1"/>
      </extension>
      <linkId value="DiagnosticReport.meta"/>
      <text value="Metadata about the resource"/>
      <type value="group"/>
      <required value="false"/>
      <repeats value="true"/>
      <item>
        <extension url="http://hl7.org/fhir/StructureDefinition/questionnaire-itemControl">
          <valueCodeableConcept>
            <coding>
              <system value="http://hl7.org/fhir/questionnaire-item-control"/>
              <code value="flyover"/>
              <display value="Fly-over"/>
            </coding>
          </valueCodeableConcept>
        </extension>
        <text value="The metadata about the resource. This is content that is maintained by the infrastructure. Changes to the content may not always be associated with version changes to the resource."/>
        <type value="display"/>
      </item>
    </item>
    <item>
      <extension url="http://hl7.org/fhir/StructureDefinition/questionnaire-maxOccurs">
        <valueInteger value="1"/>
      </extension>
      <extension url="http://hl7.org/fhir/StructureDefinition/questionnaire-fhirType">
        <valueString value="uri"/>
      </extension>
      <linkId value="DiagnosticReport.implicitRules"/>
      <type value="group"/>
      <required value="false"/>
      <repeats value="true"/>
      <item>
        <extension url="http://hl7.org/fhir/StructureDefinition/questionnaire-itemControl">
          <valueCodeableConcept>
            <coding>
              <system value="http://hl7.org/fhir/questionnaire-item-control"/>
              <code value="flyover"/>
              <display value="Fly-over"/>
            </coding>
          </valueCodeableConcept>
        </extension>
        <text value="A reference to a set of rules that were followed when the resource was constructed, and which must be understood when processing the content. Asserting this rule set restricts the content to be only understood by a limited set of trading partners. This inherently limits the usefulness of the data in the long term. However, the existing health eco-system is highly fractured, and not yet ready to define, collect, and exchange data in a generally computable sense. Wherever possible, implementers and/or specification writers should avoid using this element as much as possible."/>
        <type value="display"/>
      </item>
      <item>
        <linkId value="DiagnosticReport.implicitRules.value"/>
        <text value="A set of rules under which this content was created"/>
        <type value="string"/>
        <required value="false"/>
        <repeats value="false"/>
      </item>
    </item>
    <item>
      <extension url="http://hl7.org/fhir/StructureDefinition/questionnaire-maxOccurs">
        <valueInteger value="1"/>
      </extension>
      <extension url="http://hl7.org/fhir/StructureDefinition/questionnaire-fhirType">
        <valueString value="code"/>
      </extension>
      <linkId value="DiagnosticReport.language"/>
      <type value="group"/>
      <required value="false"/>
      <repeats value="true"/>
      <item>
        <extension url="http://hl7.org/fhir/StructureDefinition/questionnaire-itemControl">
          <valueCodeableConcept>
            <coding>
              <system value="http://hl7.org/fhir/questionnaire-item-control"/>
              <code value="flyover"/>
              <display value="Fly-over"/>
            </coding>
          </valueCodeableConcept>
        </extension>
        <text value="The base language in which the resource is written. Language is provided to support indexing and accessibility (typically, services such as text to speech use the language tag). The html language tag in the narrative applies  to the narrative. The language tag on the resource may be used to specify the language of other presentations generated from the data in the resource  Not all the content has to be in the base language. The Resource.language should not be assumed to apply to the narrative automatically. If a language is specified, it should it also be specified on the div element in the html (see rules in HTML5 for information about the relationship between xml:lang and the html lang attribute)."/>
        <type value="display"/>
      </item>
      <item>
        <linkId value="DiagnosticReport.language.value"/>
        <text value="language"/>
        <type value="choice"/>
        <required value="false"/>
        <repeats value="false"/>
      </item>
    </item>
    <item>
      <extension url="http://hl7.org/fhir/StructureDefinition/questionnaire-maxOccurs">
        <valueInteger value="1"/>
      </extension>
      <linkId value="DiagnosticReport.text"/>
      <text value="Text summary of the resource, for human interpretation"/>
      <type value="group"/>
      <required value="false"/>
      <repeats value="true"/>
      <item>
        <extension url="http://hl7.org/fhir/StructureDefinition/questionnaire-itemControl">
          <valueCodeableConcept>
            <coding>
              <system value="http://hl7.org/fhir/questionnaire-item-control"/>
              <code value="flyover"/>
              <display value="Fly-over"/>
            </coding>
          </valueCodeableConcept>
        </extension>
        <text value="A human-readable narrative that contains a summary of the resource, and may be used to represent the content of the resource to a human. The narrative need not encode all the structured data, but is required to contain sufficient detail to make it &quot;clinically safe&quot; for a human to just read the narrative. Resource definitions may define what content should be represented in the narrative to ensure clinical safety. Contained resources do not have narrative. Resources that are not contained SHOULD have a narrative. In some cases, a resource may only have text with little or no additional discrete data (as long as all minOccurs=1 elements are satisfied).  This may be necessary for data from legacy systems where information is captured as a &quot;text blob&quot; or where text is additionally entered raw or narrated and encoded in formation is added later."/>
        <type value="display"/>
      </item>
    </item>
    <item>
      <linkId value="DiagnosticReport.contained"/>
      <text value="Contained, inline Resources"/>
      <type value="group"/>
      <required value="false"/>
      <repeats value="true"/>
      <item>
        <extension url="http://hl7.org/fhir/StructureDefinition/questionnaire-itemControl">
          <valueCodeableConcept>
            <coding>
              <system value="http://hl7.org/fhir/questionnaire-item-control"/>
              <code value="flyover"/>
              <display value="Fly-over"/>
            </coding>
          </valueCodeableConcept>
        </extension>
        <text value="These resources do not have an independent existence apart from the resource that contains them - they cannot be identified independently, and nor can they have their own independent transaction scope. This should never be done when the content can be identified properly, as once identification is lost, it is extremely difficult (and context dependent) to restore it again."/>
        <type value="display"/>
      </item>
    </item>
    <item>
      <linkId value="DiagnosticReport.extension"/>
      <text value="Additional Content defined by implementations"/>
      <type value="group"/>
      <required value="false"/>
      <repeats value="true"/>
      <item>
        <extension url="http://hl7.org/fhir/StructureDefinition/questionnaire-itemControl">
          <valueCodeableConcept>
            <coding>
              <system value="http://hl7.org/fhir/questionnaire-item-control"/>
              <code value="flyover"/>
              <display value="Fly-over"/>
            </coding>
          </valueCodeableConcept>
        </extension>
        <text value="May be used to represent additional information that is not part of the basic definition of the resource. In order to make the use of extensions safe and manageable, there is a strict set of governance  applied to the definition and use of extensions. Though any implementer is allowed to define an extension, there is a set of requirements that SHALL be met as part of the definition of the extension. There can be no stigma associated with the use of extensions by any application, project, or standard - regardless of the institution or jurisdiction that uses or defines the extensions.  The use of extensions is what allows the FHIR specification to retain a core level of simplicity for everyone."/>
        <type value="display"/>
      </item>
    </item>
    <item>
      <linkId value="DiagnosticReport.modifierExtension"/>
      <text value="Extensions that cannot be ignored"/>
      <type value="group"/>
      <required value="false"/>
      <repeats value="true"/>
      <item>
        <extension url="http://hl7.org/fhir/StructureDefinition/questionnaire-itemControl">
          <valueCodeableConcept>
            <coding>
              <system value="http://hl7.org/fhir/questionnaire-item-control"/>
              <code value="flyover"/>
              <display value="Fly-over"/>
            </coding>
          </valueCodeableConcept>
        </extension>
        <text value="May be used to represent additional information that is not part of the basic definition of the resource, and that modifies the understanding of the element that contains it. Usually modifier elements provide negation or qualification. In order to make the use of extensions safe and manageable, there is a strict set of governance applied to the definition and use of extensions. Though any implementer is allowed to define an extension, there is a set of requirements that SHALL be met as part of the definition of the extension. Applications processing a resource are required to check for modifier extensions. There can be no stigma associated with the use of extensions by any application, project, or standard - regardless of the institution or jurisdiction that uses or defines the extensions.  The use of extensions is what allows the FHIR specification to retain a core level of simplicity for everyone."/>
        <type value="display"/>
      </item>
    </item>
    <item>
      <extension url="http://hl7.org/fhir/StructureDefinition/questionnaire-fhirType">
        <valueString value="Identifier"/>
      </extension>
      <linkId value="DiagnosticReport.identifier"/>
      <text value="Id for external references to this report"/>
      <type value="group"/>
      <required value="false"/>
      <repeats value="true"/>
      <item>
        <extension url="http://hl7.org/fhir/StructureDefinition/questionnaire-itemControl">
          <valueCodeableConcept>
            <coding>
              <system value="http://hl7.org/fhir/questionnaire-item-control"/>
              <code value="flyover"/>
              <display value="Fly-over"/>
            </coding>
          </valueCodeableConcept>
        </extension>
        <text value="The local ID assigned to the report by the order filler, usually by the Information System of the diagnostic service provider."/>
        <type value="display"/>
      </item>
      <item>
        <linkId value="DiagnosticReport.identifier.label"/>
        <text value="label:"/>
        <type value="string"/>
        <required value="false"/>
        <repeats value="false"/>
      </item>
      <item>
        <linkId value="DiagnosticReport.identifier.system"/>
        <text value="system:"/>
        <type value="string"/>
        <required value="false"/>
        <repeats value="false"/>
      </item>
      <item>
        <linkId value="DiagnosticReport.identifier.value"/>
        <text value="value:"/>
        <type value="string"/>
        <required value="false"/>
        <repeats value="false"/>
      </item>
    </item>
    <item>
      <extension url="http://hl7.org/fhir/StructureDefinition/questionnaire-minOccurs">
        <valueInteger value="1"/>
      </extension>
      <extension url="http://hl7.org/fhir/StructureDefinition/questionnaire-maxOccurs">
        <valueInteger value="1"/>
      </extension>
      <extension url="http://hl7.org/fhir/StructureDefinition/questionnaire-fhirType">
        <valueString value="code"/>
      </extension>
      <linkId value="DiagnosticReport.status"/>
      <type value="group"/>
      <required value="true"/>
      <repeats value="true"/>
      <item>
        <extension url="http://hl7.org/fhir/StructureDefinition/questionnaire-itemControl">
          <valueCodeableConcept>
            <coding>
              <system value="http://hl7.org/fhir/questionnaire-item-control"/>
              <code value="flyover"/>
              <display value="Fly-over"/>
            </coding>
          </valueCodeableConcept>
        </extension>
        <text value="The status of the diagnostic report as a whole. This is labeled as &quot;Is Modifier&quot; because applications need to take appropriate action if a report is withdrawn."/>
        <type value="display"/>
      </item>
      <item>
        <linkId value="DiagnosticReport.status.value"/>
        <text value="status"/>
        <type value="choice"/>
        <required value="false"/>
        <repeats value="false"/>
      </item>
    </item>
    <item>
      <extension url="http://hl7.org/fhir/StructureDefinition/questionnaire-maxOccurs">
        <valueInteger value="1"/>
      </extension>
      <extension url="http://hl7.org/fhir/StructureDefinition/questionnaire-fhirType">
        <valueString value="CodeableConcept"/>
      </extension>
      <linkId value="DiagnosticReport.category"/>
      <text value="Service category"/>
      <type value="group"/>
      <required value="false"/>
      <repeats value="true"/>
      <item>
        <extension url="http://hl7.org/fhir/StructureDefinition/questionnaire-itemControl">
          <valueCodeableConcept>
            <coding>
              <system value="http://hl7.org/fhir/questionnaire-item-control"/>
              <code value="flyover"/>
              <display value="Fly-over"/>
            </coding>
          </valueCodeableConcept>
        </extension>
        <text value="A code that classifies the clinical discipline, department or diagnostic service that created the report (e.g. cardiology, biochemistry, hematology, MRI). This is used for searching, sorting and display purposes. The level of granularity is defined by the category concepts in the value set. More fine-grained filtering can be performed using the metadata and/or terminology hierarchy in DiagnosticReport.code."/>
        <type value="display"/>
      </item>
      <item>
        <linkId value="DiagnosticReport.category.coding"/>
        <text value="code:"/>
        <type value="open-choice"/>
        <required value="false"/>
        <repeats value="false"/>
      </item>
      <item>
        <linkId value="DiagnosticReport.category.text"/>
        <text value="text:"/>
        <type value="string"/>
        <required value="false"/>
        <repeats value="false"/>
      </item>
    </item>
    <item>
      <extension url="http://hl7.org/fhir/StructureDefinition/questionnaire-minOccurs">
        <valueInteger value="1"/>
      </extension>
      <extension url="http://hl7.org/fhir/StructureDefinition/questionnaire-maxOccurs">
        <valueInteger value="1"/>
      </extension>
      <extension url="http://hl7.org/fhir/StructureDefinition/questionnaire-fhirType">
        <valueString value="CodeableConcept"/>
      </extension>
      <linkId value="DiagnosticReport.code"/>
      <text value="LOINC Code for Lipid Panel with LDL"/>
      <type value="group"/>
      <required value="true"/>
      <repeats value="true"/>
      <item>
        <extension url="http://hl7.org/fhir/StructureDefinition/questionnaire-itemControl">
          <valueCodeableConcept>
            <coding>
              <system value="http://hl7.org/fhir/questionnaire-item-control"/>
              <code value="flyover"/>
              <display value="Fly-over"/>
            </coding>
          </valueCodeableConcept>
        </extension>
        <text value="LOINC Code for Lipid Panel with LDL. LOINC code includes &quot;direct&quot; LDL - does this mean LDL derived by measuring VLDL by ultracentrifugation? This panel includes both measured and calculated LDL."/>
        <type value="display"/>
      </item>
      <item>
        <linkId value="DiagnosticReport.code.coding"/>
        <text value="code:"/>
        <type value="open-choice"/>
        <required value="false"/>
        <repeats value="false"/>
      </item>
      <item>
        <linkId value="DiagnosticReport.code.text"/>
        <text value="text:"/>
        <type value="string"/>
        <required value="false"/>
        <repeats value="false"/>
      </item>
    </item>
    <item>
      <extension url="http://hl7.org/fhir/StructureDefinition/questionnaire-minOccurs">
        <valueInteger value="1"/>
      </extension>
      <extension url="http://hl7.org/fhir/StructureDefinition/questionnaire-maxOccurs">
        <valueInteger value="1"/>
      </extension>
      <linkId value="DiagnosticReport.subject"/>
      <text value="The subject of the report, usually, but not always, the patient"/>
      <type value="group"/>
      <required value="true"/>
      <repeats value="true"/>
      <item>
        <extension url="http://hl7.org/fhir/StructureDefinition/questionnaire-itemControl">
          <valueCodeableConcept>
            <coding>
              <system value="http://hl7.org/fhir/questionnaire-item-control"/>
              <code value="flyover"/>
              <display value="Fly-over"/>
            </coding>
          </valueCodeableConcept>
        </extension>
        <text value="The subject of the report. Usually, but not always, this is a patient. However diagnostic services also perform analyses on specimens collected from a variety of other sources."/>
        <type value="display"/>
      </item>
      <item>
        <linkId value="DiagnosticReport.subject._type"/>
        <text value="type"/>
        <type value="choice"/>
        <required value="false"/>
        <repeats value="false"/>
        <options>
          <reference value="#vs2"/>
        </options>
        <item>
          <extension url="http://hl7.org/fhir/StructureDefinition/questionnaire-fhirType">
            <valueString value="Reference"/>
          </extension>
          <linkId value="DiagnosticReport.subject._Patient"/>
          <type value="group"/>
          <item>
            <extension url="http://hl7.org/fhir/StructureDefinition/questionnaire-allowedResource">
              <valueCode value="Patient"/>
            </extension>
            <extension url="http://hl7.org/fhir/StructureDefinition/questionnaire-referenceFilter">
              <valueString value="subject=$subj&amp;patient=$subj&amp;encounter=$encounter"/>
            </extension>
            <linkId value="DiagnosticReport.subject._Patient.value"/>
            <text value="Patient"/>
            <type value="reference"/>
            <required value="false"/>
            <repeats value="false"/>
          </item>
        </item>
        <item>
          <extension url="http://hl7.org/fhir/StructureDefinition/questionnaire-fhirType">
            <valueString value="Reference"/>
          </extension>
          <linkId value="DiagnosticReport.subject._Group"/>
          <type value="group"/>
          <item>
            <extension url="http://hl7.org/fhir/StructureDefinition/questionnaire-allowedResource">
              <valueCode value="Group"/>
            </extension>
            <extension url="http://hl7.org/fhir/StructureDefinition/questionnaire-referenceFilter">
              <valueString value="subject=$subj&amp;patient=$subj&amp;encounter=$encounter"/>
            </extension>
            <linkId value="DiagnosticReport.subject._Group.value"/>
            <text value="Group"/>
            <type value="reference"/>
            <required value="false"/>
            <repeats value="false"/>
          </item>
        </item>
        <item>
          <extension url="http://hl7.org/fhir/StructureDefinition/questionnaire-fhirType">
            <valueString value="Reference"/>
          </extension>
          <linkId value="DiagnosticReport.subject._Device"/>
          <type value="group"/>
          <item>
            <extension url="http://hl7.org/fhir/StructureDefinition/questionnaire-allowedResource">
              <valueCode value="Device"/>
            </extension>
            <extension url="http://hl7.org/fhir/StructureDefinition/questionnaire-referenceFilter">
              <valueString value="subject=$subj&amp;patient=$subj&amp;encounter=$encounter"/>
            </extension>
            <linkId value="DiagnosticReport.subject._Device.value"/>
            <text value="Device"/>
            <type value="reference"/>
            <required value="false"/>
            <repeats value="false"/>
          </item>
        </item>
        <item>
          <extension url="http://hl7.org/fhir/StructureDefinition/questionnaire-fhirType">
            <valueString value="Reference"/>
          </extension>
          <linkId value="DiagnosticReport.subject._Location"/>
          <type value="group"/>
          <item>
            <extension url="http://hl7.org/fhir/StructureDefinition/questionnaire-allowedResource">
              <valueCode value="Location"/>
            </extension>
            <extension url="http://hl7.org/fhir/StructureDefinition/questionnaire-referenceFilter">
              <valueString value="subject=$subj&amp;patient=$subj&amp;encounter=$encounter"/>
            </extension>
            <linkId value="DiagnosticReport.subject._Location.value"/>
            <text value="Location"/>
            <type value="reference"/>
            <required value="false"/>
            <repeats value="false"/>
          </item>
        </item>
      </item>
    </item>
    <item>
      <extension url="http://hl7.org/fhir/StructureDefinition/questionnaire-maxOccurs">
        <valueInteger value="1"/>
      </extension>
      <extension url="http://hl7.org/fhir/StructureDefinition/questionnaire-fhirType">
        <valueString value="Reference"/>
      </extension>
      <linkId value="DiagnosticReport.encounter"/>
      <type value="group"/>
      <required value="false"/>
      <repeats value="true"/>
      <item>
        <extension url="http://hl7.org/fhir/StructureDefinition/questionnaire-itemControl">
          <valueCodeableConcept>
            <coding>
              <system value="http://hl7.org/fhir/questionnaire-item-control"/>
              <code value="flyover"/>
              <display value="Fly-over"/>
            </coding>
          </valueCodeableConcept>
        </extension>
        <text value="The link to the health care event (encounter) when the order was made."/>
        <type value="display"/>
      </item>
      <item>
        <extension url="http://hl7.org/fhir/StructureDefinition/questionnaire-allowedResource">
          <valueCode value="Encounter"/>
        </extension>
        <extension url="http://hl7.org/fhir/StructureDefinition/questionnaire-referenceFilter">
          <valueString value="subject=$subj&amp;patient=$subj&amp;encounter=$encounter"/>
        </extension>
        <linkId value="DiagnosticReport.encounter.value"/>
        <text value="Health care event when test ordered"/>
        <type value="reference"/>
        <required value="false"/>
        <repeats value="false"/>
      </item>
    </item>
    <item>
      <extension url="http://hl7.org/fhir/StructureDefinition/questionnaire-minOccurs">
        <valueInteger value="1"/>
      </extension>
      <extension url="http://hl7.org/fhir/StructureDefinition/questionnaire-maxOccurs">
        <valueInteger value="1"/>
      </extension>
      <linkId value="DiagnosticReport.effective[x]"/>
      <text value="Clinically Relevant time/time-period for report"/>
      <type value="group"/>
      <required value="true"/>
      <repeats value="true"/>
      <item>
        <extension url="http://hl7.org/fhir/StructureDefinition/questionnaire-itemControl">
          <valueCodeableConcept>
            <coding>
              <system value="http://hl7.org/fhir/questionnaire-item-control"/>
              <code value="flyover"/>
              <display value="Fly-over"/>
            </coding>
          </valueCodeableConcept>
        </extension>
        <text value="The time or time-period the observed values are related to. When the subject of the report is a patient, this is usually either the time of the procedure or of specimen collection(s), but very often the source of the date/time is not known, only the date/time itself. If the diagnostic procedure was performed on the patient, this is the time it was performed. If there are specimens, the diagnostically relevant time can be derived from the specimen collection times, but the specimen information is not always available, and the exact relationship between the specimens and the diagnostically relevant time is not always automatic."/>
        <type value="display"/>
      </item>
      <item>
        <linkId value="DiagnosticReport.effective[x]._type"/>
        <text value="type"/>
        <type value="choice"/>
        <required value="false"/>
        <repeats value="false"/>
        <options>
          <reference value="#vs3"/>
        </options>
        <item>
          <extension url="http://hl7.org/fhir/StructureDefinition/questionnaire-fhirType">
            <valueString value="datetime"/>
          </extension>
          <linkId value="DiagnosticReport.effective[x]._dateTime"/>
          <type value="group"/>
          <item>
            <linkId value="DiagnosticReport.effective[x]._dateTime.value"/>
            <text value="dateTime"/>
            <type value="dateTime"/>
            <required value="false"/>
            <repeats value="false"/>
          </item>
        </item>
        <item>
          <extension url="http://hl7.org/fhir/StructureDefinition/questionnaire-fhirType">
            <valueString value="Period"/>
          </extension>
          <linkId value="DiagnosticReport.effective[x]._Period"/>
          <text value="Period"/>
          <type value="group"/>
          <item>
            <linkId value="DiagnosticReport.effective[x]._Period.low"/>
            <text value="start:"/>
            <type value="dateTime"/>
            <required value="false"/>
            <repeats value="false"/>
          </item>
          <item>
            <linkId value="DiagnosticReport.effective[x]._Period.end"/>
            <text value="end:"/>
            <type value="dateTime"/>
            <required value="false"/>
            <repeats value="false"/>
          </item>
        </item>
      </item>
    </item>
    <item>
      <extension url="http://hl7.org/fhir/StructureDefinition/questionnaire-minOccurs">
        <valueInteger value="1"/>
      </extension>
      <extension url="http://hl7.org/fhir/StructureDefinition/questionnaire-maxOccurs">
        <valueInteger value="1"/>
      </extension>
      <extension url="http://hl7.org/fhir/StructureDefinition/questionnaire-fhirType">
        <valueString value="instant"/>
      </extension>
      <linkId value="DiagnosticReport.issued"/>
      <type value="group"/>
      <required value="true"/>
      <repeats value="true"/>
      <item>
        <extension url="http://hl7.org/fhir/StructureDefinition/questionnaire-itemControl">
          <valueCodeableConcept>
            <coding>
              <system value="http://hl7.org/fhir/questionnaire-item-control"/>
              <code value="flyover"/>
              <display value="Fly-over"/>
            </coding>
          </valueCodeableConcept>
        </extension>
        <text value="The date and time that this version of the report was released from the source diagnostic service. May be different from the update time of the resource itself, because that is the status of the record (potentially a secondary copy), not the actual release time of the report."/>
        <type value="display"/>
      </item>
      <item>
        <linkId value="DiagnosticReport.issued.value"/>
        <text value="DateTime this version was released"/>
        <type value="instant"/>
        <required value="false"/>
        <repeats value="false"/>
      </item>
    </item>
    <item>
      <extension url="http://hl7.org/fhir/StructureDefinition/questionnaire-minOccurs">
        <valueInteger value="1"/>
      </extension>
      <linkId value="DiagnosticReport.performer"/>
      <text value="Responsible Diagnostic Service"/>
      <type value="group"/>
      <required value="true"/>
      <repeats value="true"/>
      <item>
        <extension url="http://hl7.org/fhir/StructureDefinition/questionnaire-itemControl">
          <valueCodeableConcept>
            <coding>
              <system value="http://hl7.org/fhir/questionnaire-item-control"/>
              <code value="flyover"/>
              <display value="Fly-over"/>
            </coding>
          </valueCodeableConcept>
        </extension>
        <text value="The diagnostic service that is responsible for issuing the report. This is not necessarily the source of the atomic data items. It is the entity that takes responsibility for the clinical report."/>
        <type value="display"/>
      </item>
      <item>
        <linkId value="DiagnosticReport.performer._type"/>
        <text value="type"/>
        <type value="choice"/>
        <required value="false"/>
        <repeats value="false"/>
        <options>
          <reference value="#vs4"/>
        </options>
        <item>
          <extension url="http://hl7.org/fhir/StructureDefinition/questionnaire-fhirType">
            <valueString value="Reference"/>
          </extension>
          <linkId value="DiagnosticReport.performer._Practitioner"/>
          <type value="group"/>
          <item>
            <extension url="http://hl7.org/fhir/StructureDefinition/questionnaire-allowedResource">
              <valueCode value="Practitioner"/>
            </extension>
            <extension url="http://hl7.org/fhir/StructureDefinition/questionnaire-referenceFilter">
              <valueString value="subject=$subj&amp;patient=$subj&amp;encounter=$encounter"/>
            </extension>
            <linkId value="DiagnosticReport.performer._Practitioner.value"/>
            <text value="Practitioner"/>
            <type value="reference"/>
            <required value="false"/>
            <repeats value="false"/>
          </item>
        </item>
        <item>
          <extension url="http://hl7.org/fhir/StructureDefinition/questionnaire-fhirType">
            <valueString value="Reference"/>
          </extension>
          <linkId value="DiagnosticReport.performer._Organization"/>
          <type value="group"/>
          <item>
            <extension url="http://hl7.org/fhir/StructureDefinition/questionnaire-allowedResource">
              <valueCode value="Organization"/>
            </extension>
            <extension url="http://hl7.org/fhir/StructureDefinition/questionnaire-referenceFilter">
              <valueString value="subject=$subj&amp;patient=$subj&amp;encounter=$encounter"/>
            </extension>
            <linkId value="DiagnosticReport.performer._Organization.value"/>
            <text value="Organization"/>
            <type value="reference"/>
            <required value="false"/>
            <repeats value="false"/>
          </item>
        </item>
      </item>
    </item>
    <item>
      <linkId value="DiagnosticReport.request"/>
      <text value="What was requested"/>
      <type value="group"/>
      <required value="false"/>
      <repeats value="true"/>
      <item>
        <extension url="http://hl7.org/fhir/StructureDefinition/questionnaire-itemControl">
          <valueCodeableConcept>
            <coding>
              <system value="http://hl7.org/fhir/questionnaire-item-control"/>
              <code value="flyover"/>
              <display value="Fly-over"/>
            </coding>
          </valueCodeableConcept>
        </extension>
        <text value="Details concerning a test or procedure requested. Note: Usually there is one test request for each result, however in some circumstances multiple test requests may be represented using a single test result resource. Note that there are also cases where one request leads to multiple reports."/>
        <type value="display"/>
      </item>
      <item>
        <linkId value="DiagnosticReport.request._type"/>
        <text value="type"/>
        <type value="choice"/>
        <required value="false"/>
        <repeats value="false"/>
        <options>
          <reference value="#vs5"/>
        </options>
        <item>
          <extension url="http://hl7.org/fhir/StructureDefinition/questionnaire-fhirType">
            <valueString value="Reference"/>
          </extension>
          <linkId value="DiagnosticReport.request._DiagnosticRequest"/>
          <type value="group"/>
          <item>
            <extension url="http://hl7.org/fhir/StructureDefinition/questionnaire-allowedResource">
              <valueCode value="DiagnosticRequest"/>
            </extension>
            <extension url="http://hl7.org/fhir/StructureDefinition/questionnaire-referenceFilter">
              <valueString value="subject=$subj&amp;patient=$subj&amp;encounter=$encounter"/>
            </extension>
            <linkId value="DiagnosticReport.request._DiagnosticRequest.value"/>
            <text value="DiagnosticRequest"/>
            <type value="reference"/>
            <required value="false"/>
            <repeats value="false"/>
          </item>
        </item>
        <item>
          <extension url="http://hl7.org/fhir/StructureDefinition/questionnaire-fhirType">
            <valueString value="Reference"/>
          </extension>
          <linkId value="DiagnosticReport.request._ProcedureRequest"/>
          <type value="group"/>
          <item>
            <extension url="http://hl7.org/fhir/StructureDefinition/questionnaire-allowedResource">
              <valueCode value="ProcedureRequest"/>
            </extension>
            <extension url="http://hl7.org/fhir/StructureDefinition/questionnaire-referenceFilter">
              <valueString value="subject=$subj&amp;patient=$subj&amp;encounter=$encounter"/>
            </extension>
            <linkId value="DiagnosticReport.request._ProcedureRequest.value"/>
            <text value="ProcedureRequest"/>
            <type value="reference"/>
            <required value="false"/>
            <repeats value="false"/>
          </item>
        </item>
        <item>
          <extension url="http://hl7.org/fhir/StructureDefinition/questionnaire-fhirType">
            <valueString value="Reference"/>
          </extension>
          <linkId value="DiagnosticReport.request._ReferralRequest"/>
          <type value="group"/>
          <item>
            <extension url="http://hl7.org/fhir/StructureDefinition/questionnaire-allowedResource">
              <valueCode value="ReferralRequest"/>
            </extension>
            <extension url="http://hl7.org/fhir/StructureDefinition/questionnaire-referenceFilter">
              <valueString value="subject=$subj&amp;patient=$subj&amp;encounter=$encounter"/>
            </extension>
            <linkId value="DiagnosticReport.request._ReferralRequest.value"/>
            <text value="ReferralRequest"/>
            <type value="reference"/>
            <required value="false"/>
            <repeats value="false"/>
          </item>
        </item>
      </item>
    </item>
    <item>
      <extension url="http://hl7.org/fhir/StructureDefinition/questionnaire-fhirType">
        <valueString value="Reference"/>
      </extension>
      <linkId value="DiagnosticReport.specimen"/>
      <type value="group"/>
      <required value="false"/>
      <repeats value="true"/>
      <item>
        <extension url="http://hl7.org/fhir/StructureDefinition/questionnaire-itemControl">
          <valueCodeableConcept>
            <coding>
              <system value="http://hl7.org/fhir/questionnaire-item-control"/>
              <code value="flyover"/>
              <display value="Fly-over"/>
            </coding>
          </valueCodeableConcept>
        </extension>
        <text value="Details about the specimens on which this diagnostic report is based. If the specimen is sufficiently specified with a code in the test result name, then this additional data may be redundant. If there are multiple specimens, these may be represented per Observation or group."/>
        <type value="display"/>
      </item>
      <item>
        <extension url="http://hl7.org/fhir/StructureDefinition/questionnaire-allowedResource">
          <valueCode value="Specimen"/>
        </extension>
        <extension url="http://hl7.org/fhir/StructureDefinition/questionnaire-referenceFilter">
          <valueString value="subject=$subj&amp;patient=$subj&amp;encounter=$encounter"/>
        </extension>
        <linkId value="DiagnosticReport.specimen.value"/>
        <text value="Specimens this report is based on"/>
        <type value="reference"/>
        <required value="false"/>
        <repeats value="false"/>
      </item>
    </item>
    <item>
      <extension url="http://hl7.org/fhir/StructureDefinition/questionnaire-maxOccurs">
        <valueInteger value="1"/>
      </extension>
      <extension url="http://hl7.org/fhir/StructureDefinition/questionnaire-fhirType">
        <valueString value="Reference"/>
      </extension>
      <linkId value="DiagnosticReport.result"/>
      <type value="group"/>
      <required value="false"/>
      <repeats value="true"/>
      <item>
        <extension url="http://hl7.org/fhir/StructureDefinition/questionnaire-itemControl">
          <valueCodeableConcept>
            <coding>
              <system value="http://hl7.org/fhir/questionnaire-item-control"/>
              <code value="flyover"/>
              <display value="Fly-over"/>
            </coding>
          </valueCodeableConcept>
        </extension>
        <text value="Observations that are part of this diagnostic report. Observations can be simple name/value pairs (e.g. &quot;atomic&quot; results), or they can be grouping observations that include references to other members of the group (e.g. &quot;panels&quot;)."/>
        <type value="display"/>
      </item>
      <item>
        <extension url="http://hl7.org/fhir/StructureDefinition/questionnaire-allowedResource">
          <valueCode value="Observation"/>
        </extension>
        <extension url="http://hl7.org/fhir/StructureDefinition/questionnaire-referenceFilter">
          <valueString value="subject=$subj&amp;patient=$subj&amp;encounter=$encounter"/>
        </extension>
        <linkId value="DiagnosticReport.result.value"/>
        <text value="Observations - simple, or complex nested groups"/>
        <type value="reference"/>
        <required value="false"/>
        <repeats value="false"/>
      </item>
    </item>
    <item>
      <extension url="http://hl7.org/fhir/StructureDefinition/questionnaire-minOccurs">
        <valueInteger value="1"/>
      </extension>
      <extension url="http://hl7.org/fhir/StructureDefinition/questionnaire-maxOccurs">
        <valueInteger value="1"/>
      </extension>
      <extension url="http://hl7.org/fhir/StructureDefinition/questionnaire-fhirType">
        <valueString value="Reference"/>
      </extension>
      <linkId value="DiagnosticReport.result"/>
      <type value="group"/>
      <required value="true"/>
      <repeats value="true"/>
      <item>
        <extension url="http://hl7.org/fhir/StructureDefinition/questionnaire-itemControl">
          <valueCodeableConcept>
            <coding>
              <system value="http://hl7.org/fhir/questionnaire-item-control"/>
              <code value="flyover"/>
              <display value="Fly-over"/>
            </coding>
          </valueCodeableConcept>
        </extension>
        <text value="Reference to Cholesterol Result."/>
        <type value="display"/>
      </item>
      <item>
        <extension url="http://hl7.org/fhir/StructureDefinition/questionnaire-allowedResource">
          <valueCode value="cholesterol"/>
        </extension>
        <extension url="http://hl7.org/fhir/StructureDefinition/questionnaire-referenceFilter">
          <valueString value="subject=$subj&amp;patient=$subj&amp;encounter=$encounter"/>
        </extension>
        <linkId value="DiagnosticReport.result.value"/>
        <text value="Cholesterol Result"/>
        <type value="reference"/>
        <required value="false"/>
        <repeats value="false"/>
      </item>
    </item>
    <item>
      <extension url="http://hl7.org/fhir/StructureDefinition/questionnaire-minOccurs">
        <valueInteger value="1"/>
      </extension>
      <extension url="http://hl7.org/fhir/StructureDefinition/questionnaire-maxOccurs">
        <valueInteger value="1"/>
      </extension>
      <extension url="http://hl7.org/fhir/StructureDefinition/questionnaire-fhirType">
        <valueString value="Reference"/>
      </extension>
      <linkId value="DiagnosticReport.result"/>
      <type value="group"/>
      <required value="true"/>
      <repeats value="true"/>
      <item>
        <extension url="http://hl7.org/fhir/StructureDefinition/questionnaire-itemControl">
          <valueCodeableConcept>
            <coding>
              <system value="http://hl7.org/fhir/questionnaire-item-control"/>
              <code value="flyover"/>
              <display value="Fly-over"/>
            </coding>
          </valueCodeableConcept>
        </extension>
        <text value="Group of elements for Triglyceride result."/>
        <type value="display"/>
      </item>
      <item>
        <extension url="http://hl7.org/fhir/StructureDefinition/questionnaire-allowedResource">
          <valueCode value="triglyceride"/>
        </extension>
        <extension url="http://hl7.org/fhir/StructureDefinition/questionnaire-referenceFilter">
          <valueString value="subject=$subj&amp;patient=$subj&amp;encounter=$encounter"/>
        </extension>
        <linkId value="DiagnosticReport.result.value"/>
        <text value="Triglyceride Result"/>
        <type value="reference"/>
        <required value="false"/>
        <repeats value="false"/>
      </item>
    </item>
    <item>
      <extension url="http://hl7.org/fhir/StructureDefinition/questionnaire-minOccurs">
        <valueInteger value="1"/>
      </extension>
      <extension url="http://hl7.org/fhir/StructureDefinition/questionnaire-maxOccurs">
        <valueInteger value="1"/>
      </extension>
      <extension url="http://hl7.org/fhir/StructureDefinition/questionnaire-fhirType">
        <valueString value="Reference"/>
      </extension>
      <linkId value="DiagnosticReport.result"/>
      <type value="group"/>
      <required value="true"/>
      <repeats value="true"/>
      <item>
        <extension url="http://hl7.org/fhir/StructureDefinition/questionnaire-itemControl">
          <valueCodeableConcept>
            <coding>
              <system value="http://hl7.org/fhir/questionnaire-item-control"/>
              <code value="flyover"/>
              <display value="Fly-over"/>
            </coding>
          </valueCodeableConcept>
        </extension>
        <text value="Group of elements for HDL Cholesterol result."/>
        <type value="display"/>
      </item>
      <item>
        <extension url="http://hl7.org/fhir/StructureDefinition/questionnaire-allowedResource">
          <valueCode value="hdlcholesterol"/>
        </extension>
        <extension url="http://hl7.org/fhir/StructureDefinition/questionnaire-referenceFilter">
          <valueString value="subject=$subj&amp;patient=$subj&amp;encounter=$encounter"/>
        </extension>
        <linkId value="DiagnosticReport.result.value"/>
        <text value="HDL Cholesterol Result"/>
        <type value="reference"/>
        <required value="false"/>
        <repeats value="false"/>
      </item>
    </item>
    <item>
      <extension url="http://hl7.org/fhir/StructureDefinition/questionnaire-maxOccurs">
        <valueInteger value="1"/>
      </extension>
      <extension url="http://hl7.org/fhir/StructureDefinition/questionnaire-fhirType">
        <valueString value="Reference"/>
      </extension>
      <linkId value="DiagnosticReport.result"/>
      <type value="group"/>
      <required value="false"/>
      <repeats value="true"/>
      <item>
        <extension url="http://hl7.org/fhir/StructureDefinition/questionnaire-itemControl">
          <valueCodeableConcept>
            <coding>
              <system value="http://hl7.org/fhir/questionnaire-item-control"/>
              <code value="flyover"/>
              <display value="Fly-over"/>
            </coding>
          </valueCodeableConcept>
        </extension>
        <text value="LDL Cholesterol result, if reported."/>
        <type value="display"/>
      </item>
      <item>
        <extension url="http://hl7.org/fhir/StructureDefinition/questionnaire-allowedResource">
          <valueCode value="ldlcholesterol"/>
        </extension>
        <extension url="http://hl7.org/fhir/StructureDefinition/questionnaire-referenceFilter">
          <valueString value="subject=$subj&amp;patient=$subj&amp;encounter=$encounter"/>
        </extension>
        <linkId value="DiagnosticReport.result.value"/>
        <text value="LDL Cholesterol result, if reported"/>
        <type value="reference"/>
        <required value="false"/>
        <repeats value="false"/>
      </item>
    </item>
    <item>
      <linkId value="DiagnosticReport.imagingStudy"/>
      <text value="Reference to full details of imaging associated with the diagnostic report"/>
      <type value="group"/>
      <required value="false"/>
      <repeats value="true"/>
      <item>
        <extension url="http://hl7.org/fhir/StructureDefinition/questionnaire-itemControl">
          <valueCodeableConcept>
            <coding>
              <system value="http://hl7.org/fhir/questionnaire-item-control"/>
              <code value="flyover"/>
              <display value="Fly-over"/>
            </coding>
          </valueCodeableConcept>
        </extension>
        <text value="One or more links to full details of any imaging performed during the diagnostic investigation. Typically, this is imaging performed by DICOM enabled modalities, but this is not required. A fully enabled PACS viewer can use this information to provide views of the source images. ImagingStudy and ImageManifest and the image element are somewhat overlapping - typically, the list of image references in the image element will also be found in one of the imaging study resources. However each caters to different types of displays for different types of purposes. Neither, either, or both may be provided."/>
        <type value="display"/>
      </item>
      <item>
        <linkId value="DiagnosticReport.imagingStudy._type"/>
        <text value="type"/>
        <type value="choice"/>
        <required value="false"/>
        <repeats value="false"/>
        <options>
          <reference value="#vs6"/>
        </options>
        <item>
          <extension url="http://hl7.org/fhir/StructureDefinition/questionnaire-fhirType">
            <valueString value="Reference"/>
          </extension>
          <linkId value="DiagnosticReport.imagingStudy._ImagingStudy"/>
          <type value="group"/>
          <item>
            <extension url="http://hl7.org/fhir/StructureDefinition/questionnaire-allowedResource">
              <valueCode value="ImagingStudy"/>
            </extension>
            <extension url="http://hl7.org/fhir/StructureDefinition/questionnaire-referenceFilter">
              <valueString value="subject=$subj&amp;patient=$subj&amp;encounter=$encounter"/>
            </extension>
            <linkId value="DiagnosticReport.imagingStudy._ImagingStudy.value"/>
            <text value="ImagingStudy"/>
            <type value="reference"/>
            <required value="false"/>
            <repeats value="false"/>
          </item>
        </item>
        <item>
          <extension url="http://hl7.org/fhir/StructureDefinition/questionnaire-fhirType">
            <valueString value="Reference"/>
          </extension>
          <linkId value="DiagnosticReport.imagingStudy._ImagingManifest"/>
          <type value="group"/>
          <item>
            <extension url="http://hl7.org/fhir/StructureDefinition/questionnaire-allowedResource">
              <valueCode value="ImagingManifest"/>
            </extension>
            <extension url="http://hl7.org/fhir/StructureDefinition/questionnaire-referenceFilter">
              <valueString value="subject=$subj&amp;patient=$subj&amp;encounter=$encounter"/>
            </extension>
            <linkId value="DiagnosticReport.imagingStudy._ImagingManifest.value"/>
            <text value="ImagingManifest"/>
            <type value="reference"/>
            <required value="false"/>
            <repeats value="false"/>
          </item>
        </item>
      </item>
    </item>
    <item>
      <linkId value="DiagnosticReport.image"/>
      <text value="Key images associated with this report"/>
      <type value="group"/>
      <required value="false"/>
      <repeats value="true"/>
      <item>
        <extension url="http://hl7.org/fhir/StructureDefinition/questionnaire-itemControl">
          <valueCodeableConcept>
            <coding>
              <system value="http://hl7.org/fhir/questionnaire-item-control"/>
              <code value="flyover"/>
              <display value="Fly-over"/>
            </coding>
          </valueCodeableConcept>
        </extension>
        <text value="A list of key images associated with this report. The images are generally created during the diagnostic process, and may be directly of the patient, or of treated specimens (i.e. slides of interest)."/>
        <type value="display"/>
      </item>
      <item>
        <extension url="http://hl7.org/fhir/StructureDefinition/questionnaire-maxOccurs">
          <valueInteger value="1"/>
        </extension>
        <extension url="http://hl7.org/fhir/StructureDefinition/questionnaire-fhirType">
          <valueString value="string"/>
        </extension>
        <linkId value="DiagnosticReport.image.id"/>
        <type value="group"/>
        <required value="false"/>
        <repeats value="true"/>
        <item>
          <extension url="http://hl7.org/fhir/StructureDefinition/questionnaire-itemControl">
            <valueCodeableConcept>
              <coding>
                <system value="http://hl7.org/fhir/questionnaire-item-control"/>
                <code value="flyover"/>
                <display value="Fly-over"/>
              </coding>
            </valueCodeableConcept>
          </extension>
          <text value="unique id for the element within a resource (for internal references). This may be any string value that does not contain spaces."/>
          <type value="display"/>
        </item>
        <item>
          <linkId value="DiagnosticReport.image.id.value"/>
          <text value="xml:id (or equivalent in JSON)"/>
          <type value="string"/>
          <required value="false"/>
          <repeats value="false"/>
        </item>
      </item>
      <item>
        <linkId value="DiagnosticReport.image.extension"/>
        <text value="Additional Content defined by implementations"/>
        <type value="group"/>
        <required value="false"/>
        <repeats value="true"/>
        <item>
          <extension url="http://hl7.org/fhir/StructureDefinition/questionnaire-itemControl">
            <valueCodeableConcept>
              <coding>
                <system value="http://hl7.org/fhir/questionnaire-item-control"/>
                <code value="flyover"/>
                <display value="Fly-over"/>
              </coding>
            </valueCodeableConcept>
          </extension>
          <text value="May be used to represent additional information that is not part of the basic definition of the element. In order to make the use of extensions safe and manageable, there is a strict set of governance  applied to the definition and use of extensions. Though any implementer is allowed to define an extension, there is a set of requirements that SHALL be met as part of the definition of the extension. There can be no stigma associated with the use of extensions by any application, project, or standard - regardless of the institution or jurisdiction that uses or defines the extensions.  The use of extensions is what allows the FHIR specification to retain a core level of simplicity for everyone."/>
          <type value="display"/>
        </item>
      </item>
      <item>
        <linkId value="DiagnosticReport.image.modifierExtension"/>
        <text value="Extensions that cannot be ignored"/>
        <type value="group"/>
        <required value="false"/>
        <repeats value="true"/>
        <item>
          <extension url="http://hl7.org/fhir/StructureDefinition/questionnaire-itemControl">
            <valueCodeableConcept>
              <coding>
                <system value="http://hl7.org/fhir/questionnaire-item-control"/>
                <code value="flyover"/>
                <display value="Fly-over"/>
              </coding>
            </valueCodeableConcept>
          </extension>
          <text value="May be used to represent additional information that is not part of the basic definition of the element, and that modifies the understanding of the element that contains it. Usually modifier elements provide negation or qualification. In order to make the use of extensions safe and manageable, there is a strict set of governance applied to the definition and use of extensions. Though any implementer is allowed to define an extension, there is a set of requirements that SHALL be met as part of the definition of the extension. Applications processing a resource are required to check for modifier extensions. There can be no stigma associated with the use of extensions by any application, project, or standard - regardless of the institution or jurisdiction that uses or defines the extensions.  The use of extensions is what allows the FHIR specification to retain a core level of simplicity for everyone."/>
          <type value="display"/>
        </item>
      </item>
      <item>
        <extension url="http://hl7.org/fhir/StructureDefinition/questionnaire-maxOccurs">
          <valueInteger value="1"/>
        </extension>
        <extension url="http://hl7.org/fhir/StructureDefinition/questionnaire-fhirType">
          <valueString value="string"/>
        </extension>
        <linkId value="DiagnosticReport.image.comment"/>
        <type value="group"/>
        <required value="false"/>
        <repeats value="true"/>
        <item>
          <extension url="http://hl7.org/fhir/StructureDefinition/questionnaire-itemControl">
            <valueCodeableConcept>
              <coding>
                <system value="http://hl7.org/fhir/questionnaire-item-control"/>
                <code value="flyover"/>
                <display value="Fly-over"/>
              </coding>
            </valueCodeableConcept>
          </extension>
          <text value="A comment about the image. Typically, this is used to provide an explanation for why the image is included, or to draw the viewer&#39;s attention to important features. The comment should be displayed with the image. It would be common for the report to include additional discussion of the image contents in other sections such as the conclusion."/>
          <type value="display"/>
        </item>
        <item>
          <linkId value="DiagnosticReport.image.comment.value"/>
          <text value="Comment about the image (e.g. explanation)"/>
          <type value="string"/>
          <required value="false"/>
          <repeats value="false"/>
        </item>
      </item>
      <item>
        <extension url="http://hl7.org/fhir/StructureDefinition/questionnaire-minOccurs">
          <valueInteger value="1"/>
        </extension>
        <extension url="http://hl7.org/fhir/StructureDefinition/questionnaire-maxOccurs">
          <valueInteger value="1"/>
        </extension>
        <extension url="http://hl7.org/fhir/StructureDefinition/questionnaire-fhirType">
          <valueString value="Reference"/>
        </extension>
        <linkId value="DiagnosticReport.image.link"/>
        <type value="group"/>
        <required value="true"/>
        <repeats value="true"/>
        <item>
          <extension url="http://hl7.org/fhir/StructureDefinition/questionnaire-itemControl">
            <valueCodeableConcept>
              <coding>
                <system value="http://hl7.org/fhir/questionnaire-item-control"/>
                <code value="flyover"/>
                <display value="Fly-over"/>
              </coding>
            </valueCodeableConcept>
          </extension>
          <text value="Reference to the image source."/>
          <type value="display"/>
        </item>
        <item>
          <extension url="http://hl7.org/fhir/StructureDefinition/questionnaire-allowedResource">
            <valueCode value="Media"/>
          </extension>
          <extension url="http://hl7.org/fhir/StructureDefinition/questionnaire-referenceFilter">
            <valueString value="subject=$subj&amp;patient=$subj&amp;encounter=$encounter"/>
          </extension>
          <linkId value="DiagnosticReport.image.link.value"/>
          <text value="Reference to the image source"/>
          <type value="reference"/>
          <required value="false"/>
          <repeats value="false"/>
        </item>
      </item>
    </item>
    <item>
      <extension url="http://hl7.org/fhir/StructureDefinition/questionnaire-maxOccurs">
        <valueInteger value="1"/>
      </extension>
      <extension url="http://hl7.org/fhir/StructureDefinition/questionnaire-fhirType">
        <valueString value="string"/>
      </extension>
      <linkId value="DiagnosticReport.conclusion"/>
      <type value="group"/>
      <required value="false"/>
      <repeats value="true"/>
      <item>
        <extension url="http://hl7.org/fhir/StructureDefinition/questionnaire-itemControl">
          <valueCodeableConcept>
            <coding>
              <system value="http://hl7.org/fhir/questionnaire-item-control"/>
              <code value="flyover"/>
              <display value="Fly-over"/>
            </coding>
          </valueCodeableConcept>
        </extension>
        <text value="May include diagnosis or suggestions for follow up testing. It&#39;s not unusual for the lab to make some kind of interpretative comment on the set of results."/>
        <type value="display"/>
      </item>
      <item>
        <linkId value="DiagnosticReport.conclusion.value"/>
        <text value="Clinical Interpretation of Lipid Panel"/>
        <type value="string"/>
        <required value="false"/>
        <repeats value="false"/>
      </item>
    </item>
    <item>
      <extension url="http://hl7.org/fhir/StructureDefinition/questionnaire-maxOccurs">
        <valueInteger value="0"/>
      </extension>
      <extension url="http://hl7.org/fhir/StructureDefinition/questionnaire-fhirType">
        <valueString value="CodeableConcept"/>
      </extension>
      <linkId value="DiagnosticReport.codedDiagnosis"/>
      <text value="No codes for a lipid panel"/>
      <type value="group"/>
      <required value="false"/>
      <repeats value="true"/>
      <item>
        <extension url="http://hl7.org/fhir/StructureDefinition/questionnaire-itemControl">
          <valueCodeableConcept>
            <coding>
              <system value="http://hl7.org/fhir/questionnaire-item-control"/>
              <code value="flyover"/>
              <display value="Fly-over"/>
            </coding>
          </valueCodeableConcept>
        </extension>
        <text value="No codes for a lipid panel. Not used in this context."/>
        <type value="display"/>
      </item>
      <item>
        <linkId value="DiagnosticReport.codedDiagnosis.coding"/>
        <text value="code:"/>
        <type value="open-choice"/>
        <required value="false"/>
        <repeats value="false"/>
      </item>
      <item>
        <linkId value="DiagnosticReport.codedDiagnosis.text"/>
        <text value="text:"/>
        <type value="string"/>
        <required value="false"/>
        <repeats value="false"/>
      </item>
    </item>
    <item>
      <extension url="http://hl7.org/fhir/StructureDefinition/questionnaire-fhirType">
        <valueString value="Attachment"/>
      </extension>
      <linkId value="DiagnosticReport.presentedForm"/>
      <text value="Entire report as issued"/>
      <type value="group"/>
      <required value="false"/>
      <repeats value="true"/>
      <item>
        <extension url="http://hl7.org/fhir/StructureDefinition/questionnaire-itemControl">
          <valueCodeableConcept>
            <coding>
              <system value="http://hl7.org/fhir/questionnaire-item-control"/>
              <code value="flyover"/>
              <display value="Fly-over"/>
            </coding>
          </valueCodeableConcept>
        </extension>
        <text value="Rich text representation of the entire result as issued by the diagnostic service. Multiple formats are allowed but they SHALL be semantically equivalent. &quot;application/pdf&quot; is recommended as the most reliable and interoperable in this context."/>
        <type value="display"/>
      </item>
    </item>
  </item>
</Questionnaire>