<?xml version="1.0" encoding="UTF-8"?>

<Questionnaire xmlns="http://hl7.org/fhir">
  <id value="qs1"/>
  <contained>
    <ValueSet>
      <id value="vs2"/>
      <name value="Type options for MessageHeader.receiver"/>
      <status value="active"/>
      <description value="Type options for MessageHeader.receiver"/>
      <expansion>
        <identifier value="urn:uuid:73d52b16-e036-4ffe-8518-f5763e27f8b4"/>
        <timestamp value="2016-10-27T16:27:37+00:00"/>
        <contains>
          <system value="http://hl7.org/fhir/resource-types"/>
          <code value="Practitioner"/>
          <display value="Practitioner"/>
        </contains>
        <contains>
          <system value="http://hl7.org/fhir/resource-types"/>
          <code value="Organization"/>
          <display value="Organization"/>
        </contains>
      </expansion>
    </ValueSet>
  </contained>
  <contained>
    <ValueSet>
      <id value="vs3"/>
      <name value="Type options for MessageHeader.responsible"/>
      <status value="active"/>
      <description value="Type options for MessageHeader.responsible"/>
      <expansion>
        <identifier value="urn:uuid:64c7aab9-39eb-4552-9c79-8d03d8488c61"/>
        <timestamp value="2016-10-27T16:27:37+00:00"/>
        <contains>
          <system value="http://hl7.org/fhir/resource-types"/>
          <code value="Practitioner"/>
          <display value="Practitioner"/>
        </contains>
        <contains>
          <system value="http://hl7.org/fhir/resource-types"/>
          <code value="Organization"/>
          <display value="Organization"/>
        </contains>
      </expansion>
    </ValueSet>
  </contained>
  <identifier>
    <system value="urn:ietf:rfc:3986"/>
  </identifier>
  <status value="draft"/>
  <date value="2016-10-27T16:23:35+00:00"/>
  <publisher value="Health Level Seven International (FHIR Infrastructure)"/>
  <item>
    <linkId value="MessageHeader"/>
    <text value="A resource that describes a message that is exchanged between systems"/>
    <type value="group"/>
    <required value="false"/>
    <repeats value="true"/>
    <item>
      <extension url="http://hl7.org/fhir/StructureDefinition/questionnaire-itemControl">
        <valueCodeableConcept>
          <coding>
            <system value="http://hl7.org/fhir/questionnaire-item-control"/>
            <code value="flyover"/>
            <display value="Fly-over"/>
          </coding>
        </valueCodeableConcept>
      </extension>
      <text value="The header for a message exchange that is either requesting or responding to an action.  The reference(s) that are the subject of the action as well as other information related to the action are typically transmitted in a bundle in which the MessageHeader resource instance is the first resource in the bundle."/>
      <type value="display"/>
    </item>
    <item>
      <extension url="http://hl7.org/fhir/StructureDefinition/questionnaire-maxOccurs">
        <valueInteger value="1"/>
      </extension>
      <extension url="http://hl7.org/fhir/StructureDefinition/questionnaire-fhirType">
        <valueString value="string"/>
      </extension>
      <linkId value="MessageHeader.id"/>
      <type value="group"/>
      <required value="false"/>
      <repeats value="true"/>
      <item>
        <extension url="http://hl7.org/fhir/StructureDefinition/questionnaire-itemControl">
          <valueCodeableConcept>
            <coding>
              <system value="http://hl7.org/fhir/questionnaire-item-control"/>
              <code value="flyover"/>
              <display value="Fly-over"/>
            </coding>
          </valueCodeableConcept>
        </extension>
        <text value="The logical id of the resource, as used in the URL for the resource. Once assigned, this value never changes. The only time that a resource does not have an id is when it is being submitted to the server using a create operation."/>
        <type value="display"/>
      </item>
      <item>
        <linkId value="MessageHeader.id.value"/>
        <text value="Logical id of this artifact"/>
        <type value="string"/>
        <required value="false"/>
        <repeats value="false"/>
      </item>
    </item>
    <item>
      <extension url="http://hl7.org/fhir/StructureDefinition/questionnaire-maxOccurs">
        <valueInteger value="1"/>
      </extension>
      <linkId value="MessageHeader.meta"/>
      <text value="Metadata about the resource"/>
      <type value="group"/>
      <required value="false"/>
      <repeats value="true"/>
      <item>
        <extension url="http://hl7.org/fhir/StructureDefinition/questionnaire-itemControl">
          <valueCodeableConcept>
            <coding>
              <system value="http://hl7.org/fhir/questionnaire-item-control"/>
              <code value="flyover"/>
              <display value="Fly-over"/>
            </coding>
          </valueCodeableConcept>
        </extension>
        <text value="The metadata about the resource. This is content that is maintained by the infrastructure. Changes to the content may not always be associated with version changes to the resource."/>
        <type value="display"/>
      </item>
    </item>
    <item>
      <extension url="http://hl7.org/fhir/StructureDefinition/questionnaire-maxOccurs">
        <valueInteger value="1"/>
      </extension>
      <extension url="http://hl7.org/fhir/StructureDefinition/questionnaire-fhirType">
        <valueString value="uri"/>
      </extension>
      <linkId value="MessageHeader.implicitRules"/>
      <type value="group"/>
      <required value="false"/>
      <repeats value="true"/>
      <item>
        <extension url="http://hl7.org/fhir/StructureDefinition/questionnaire-itemControl">
          <valueCodeableConcept>
            <coding>
              <system value="http://hl7.org/fhir/questionnaire-item-control"/>
              <code value="flyover"/>
              <display value="Fly-over"/>
            </coding>
          </valueCodeableConcept>
        </extension>
        <text value="A reference to a set of rules that were followed when the resource was constructed, and which must be understood when processing the content. Asserting this rule set restricts the content to be only understood by a limited set of trading partners. This inherently limits the usefulness of the data in the long term. However, the existing health eco-system is highly fractured, and not yet ready to define, collect, and exchange data in a generally computable sense. Wherever possible, implementers and/or specification writers should avoid using this element as much as possible."/>
        <type value="display"/>
      </item>
      <item>
        <linkId value="MessageHeader.implicitRules.value"/>
        <text value="A set of rules under which this content was created"/>
        <type value="string"/>
        <required value="false"/>
        <repeats value="false"/>
      </item>
    </item>
    <item>
      <extension url="http://hl7.org/fhir/StructureDefinition/questionnaire-maxOccurs">
        <valueInteger value="1"/>
      </extension>
      <extension url="http://hl7.org/fhir/StructureDefinition/questionnaire-fhirType">
        <valueString value="code"/>
      </extension>
      <linkId value="MessageHeader.language"/>
      <type value="group"/>
      <required value="false"/>
      <repeats value="true"/>
      <item>
        <extension url="http://hl7.org/fhir/StructureDefinition/questionnaire-itemControl">
          <valueCodeableConcept>
            <coding>
              <system value="http://hl7.org/fhir/questionnaire-item-control"/>
              <code value="flyover"/>
              <display value="Fly-over"/>
            </coding>
          </valueCodeableConcept>
        </extension>
        <text value="The base language in which the resource is written. Language is provided to support indexing and accessibility (typically, services such as text to speech use the language tag). The html language tag in the narrative applies  to the narrative. The language tag on the resource may be used to specify the language of other presentations generated from the data in the resource  Not all the content has to be in the base language. The Resource.language should not be assumed to apply to the narrative automatically. If a language is specified, it should it also be specified on the div element in the html (see rules in HTML5 for information about the relationship between xml:lang and the html lang attribute)."/>
        <type value="display"/>
      </item>
      <item>
        <linkId value="MessageHeader.language.value"/>
        <text value="language"/>
        <type value="choice"/>
        <required value="false"/>
        <repeats value="false"/>
      </item>
    </item>
    <item>
      <extension url="http://hl7.org/fhir/StructureDefinition/questionnaire-maxOccurs">
        <valueInteger value="1"/>
      </extension>
      <linkId value="MessageHeader.text"/>
      <text value="Text summary of the resource, for human interpretation"/>
      <type value="group"/>
      <required value="false"/>
      <repeats value="true"/>
      <item>
        <extension url="http://hl7.org/fhir/StructureDefinition/questionnaire-itemControl">
          <valueCodeableConcept>
            <coding>
              <system value="http://hl7.org/fhir/questionnaire-item-control"/>
              <code value="flyover"/>
              <display value="Fly-over"/>
            </coding>
          </valueCodeableConcept>
        </extension>
        <text value="A human-readable narrative that contains a summary of the resource, and may be used to represent the content of the resource to a human. The narrative need not encode all the structured data, but is required to contain sufficient detail to make it &quot;clinically safe&quot; for a human to just read the narrative. Resource definitions may define what content should be represented in the narrative to ensure clinical safety. Contained resources do not have narrative. Resources that are not contained SHOULD have a narrative. In some cases, a resource may only have text with little or no additional discrete data (as long as all minOccurs=1 elements are satisfied).  This may be necessary for data from legacy systems where information is captured as a &quot;text blob&quot; or where text is additionally entered raw or narrated and encoded in formation is added later."/>
        <type value="display"/>
      </item>
    </item>
    <item>
      <linkId value="MessageHeader.contained"/>
      <text value="Contained, inline Resources"/>
      <type value="group"/>
      <required value="false"/>
      <repeats value="true"/>
      <item>
        <extension url="http://hl7.org/fhir/StructureDefinition/questionnaire-itemControl">
          <valueCodeableConcept>
            <coding>
              <system value="http://hl7.org/fhir/questionnaire-item-control"/>
              <code value="flyover"/>
              <display value="Fly-over"/>
            </coding>
          </valueCodeableConcept>
        </extension>
        <text value="These resources do not have an independent existence apart from the resource that contains them - they cannot be identified independently, and nor can they have their own independent transaction scope. This should never be done when the content can be identified properly, as once identification is lost, it is extremely difficult (and context dependent) to restore it again."/>
        <type value="display"/>
      </item>
    </item>
    <item>
      <linkId value="MessageHeader.extension"/>
      <text value="Additional Content defined by implementations"/>
      <type value="group"/>
      <required value="false"/>
      <repeats value="true"/>
      <item>
        <extension url="http://hl7.org/fhir/StructureDefinition/questionnaire-itemControl">
          <valueCodeableConcept>
            <coding>
              <system value="http://hl7.org/fhir/questionnaire-item-control"/>
              <code value="flyover"/>
              <display value="Fly-over"/>
            </coding>
          </valueCodeableConcept>
        </extension>
        <text value="May be used to represent additional information that is not part of the basic definition of the resource. In order to make the use of extensions safe and manageable, there is a strict set of governance  applied to the definition and use of extensions. Though any implementer is allowed to define an extension, there is a set of requirements that SHALL be met as part of the definition of the extension. There can be no stigma associated with the use of extensions by any application, project, or standard - regardless of the institution or jurisdiction that uses or defines the extensions.  The use of extensions is what allows the FHIR specification to retain a core level of simplicity for everyone."/>
        <type value="display"/>
      </item>
    </item>
    <item>
      <linkId value="MessageHeader.modifierExtension"/>
      <text value="Extensions that cannot be ignored"/>
      <type value="group"/>
      <required value="false"/>
      <repeats value="true"/>
      <item>
        <extension url="http://hl7.org/fhir/StructureDefinition/questionnaire-itemControl">
          <valueCodeableConcept>
            <coding>
              <system value="http://hl7.org/fhir/questionnaire-item-control"/>
              <code value="flyover"/>
              <display value="Fly-over"/>
            </coding>
          </valueCodeableConcept>
        </extension>
        <text value="May be used to represent additional information that is not part of the basic definition of the resource, and that modifies the understanding of the element that contains it. Usually modifier elements provide negation or qualification. In order to make the use of extensions safe and manageable, there is a strict set of governance applied to the definition and use of extensions. Though any implementer is allowed to define an extension, there is a set of requirements that SHALL be met as part of the definition of the extension. Applications processing a resource are required to check for modifier extensions. There can be no stigma associated with the use of extensions by any application, project, or standard - regardless of the institution or jurisdiction that uses or defines the extensions.  The use of extensions is what allows the FHIR specification to retain a core level of simplicity for everyone."/>
        <type value="display"/>
      </item>
    </item>
    <item>
      <extension url="http://hl7.org/fhir/StructureDefinition/questionnaire-minOccurs">
        <valueInteger value="1"/>
      </extension>
      <extension url="http://hl7.org/fhir/StructureDefinition/questionnaire-maxOccurs">
        <valueInteger value="1"/>
      </extension>
      <extension url="http://hl7.org/fhir/StructureDefinition/questionnaire-fhirType">
        <valueString value="instant"/>
      </extension>
      <linkId value="MessageHeader.timestamp"/>
      <type value="group"/>
      <required value="true"/>
      <repeats value="true"/>
      <item>
        <extension url="http://hl7.org/fhir/StructureDefinition/questionnaire-itemControl">
          <valueCodeableConcept>
            <coding>
              <system value="http://hl7.org/fhir/questionnaire-item-control"/>
              <code value="flyover"/>
              <display value="Fly-over"/>
            </coding>
          </valueCodeableConcept>
        </extension>
        <text value="The time that the message was sent."/>
        <type value="display"/>
      </item>
      <item>
        <linkId value="MessageHeader.timestamp.value"/>
        <text value="Time that the message was sent"/>
        <type value="instant"/>
        <required value="false"/>
        <repeats value="false"/>
      </item>
    </item>
    <item>
      <extension url="http://hl7.org/fhir/StructureDefinition/questionnaire-minOccurs">
        <valueInteger value="1"/>
      </extension>
      <extension url="http://hl7.org/fhir/StructureDefinition/questionnaire-maxOccurs">
        <valueInteger value="1"/>
      </extension>
      <extension url="http://hl7.org/fhir/StructureDefinition/questionnaire-fhirType">
        <valueString value="Coding"/>
      </extension>
      <linkId value="MessageHeader.event"/>
      <type value="group"/>
      <required value="true"/>
      <repeats value="true"/>
      <item>
        <extension url="http://hl7.org/fhir/StructureDefinition/questionnaire-itemControl">
          <valueCodeableConcept>
            <coding>
              <system value="http://hl7.org/fhir/questionnaire-item-control"/>
              <code value="flyover"/>
              <display value="Fly-over"/>
            </coding>
          </valueCodeableConcept>
        </extension>
        <text value="Code that identifies the event this message represents and connects it with its definition. Events defined as part of the FHIR specification have the system value &quot;http://hl7.org/fhir/message-events&quot;."/>
        <type value="display"/>
      </item>
      <item>
        <linkId value="MessageHeader.event.value"/>
        <text value="Code for the event this message represents"/>
        <type value="open-choice"/>
        <required value="false"/>
        <repeats value="false"/>
      </item>
    </item>
    <item>
      <extension url="http://hl7.org/fhir/StructureDefinition/questionnaire-maxOccurs">
        <valueInteger value="1"/>
      </extension>
      <linkId value="MessageHeader.response"/>
      <text value="If this is a reply to prior message"/>
      <type value="group"/>
      <required value="false"/>
      <repeats value="false"/>
      <item>
        <extension url="http://hl7.org/fhir/StructureDefinition/questionnaire-itemControl">
          <valueCodeableConcept>
            <coding>
              <system value="http://hl7.org/fhir/questionnaire-item-control"/>
              <code value="flyover"/>
              <display value="Fly-over"/>
            </coding>
          </valueCodeableConcept>
        </extension>
        <text value="Information about the message that this message is a response to.  Only present if this message is a response."/>
        <type value="display"/>
      </item>
      <item>
        <extension url="http://hl7.org/fhir/StructureDefinition/questionnaire-maxOccurs">
          <valueInteger value="1"/>
        </extension>
        <extension url="http://hl7.org/fhir/StructureDefinition/questionnaire-fhirType">
          <valueString value="string"/>
        </extension>
        <linkId value="MessageHeader.response.id"/>
        <type value="group"/>
        <required value="false"/>
        <repeats value="true"/>
        <item>
          <extension url="http://hl7.org/fhir/StructureDefinition/questionnaire-itemControl">
            <valueCodeableConcept>
              <coding>
                <system value="http://hl7.org/fhir/questionnaire-item-control"/>
                <code value="flyover"/>
                <display value="Fly-over"/>
              </coding>
            </valueCodeableConcept>
          </extension>
          <text value="unique id for the element within a resource (for internal references). This may be any string value that does not contain spaces."/>
          <type value="display"/>
        </item>
        <item>
          <linkId value="MessageHeader.response.id.value"/>
          <text value="xml:id (or equivalent in JSON)"/>
          <type value="string"/>
          <required value="false"/>
          <repeats value="false"/>
        </item>
      </item>
      <item>
        <linkId value="MessageHeader.response.extension"/>
        <text value="Additional Content defined by implementations"/>
        <type value="group"/>
        <required value="false"/>
        <repeats value="true"/>
        <item>
          <extension url="http://hl7.org/fhir/StructureDefinition/questionnaire-itemControl">
            <valueCodeableConcept>
              <coding>
                <system value="http://hl7.org/fhir/questionnaire-item-control"/>
                <code value="flyover"/>
                <display value="Fly-over"/>
              </coding>
            </valueCodeableConcept>
          </extension>
          <text value="May be used to represent additional information that is not part of the basic definition of the element. In order to make the use of extensions safe and manageable, there is a strict set of governance  applied to the definition and use of extensions. Though any implementer is allowed to define an extension, there is a set of requirements that SHALL be met as part of the definition of the extension. There can be no stigma associated with the use of extensions by any application, project, or standard - regardless of the institution or jurisdiction that uses or defines the extensions.  The use of extensions is what allows the FHIR specification to retain a core level of simplicity for everyone."/>
          <type value="display"/>
        </item>
      </item>
      <item>
        <linkId value="MessageHeader.response.modifierExtension"/>
        <text value="Extensions that cannot be ignored"/>
        <type value="group"/>
        <required value="false"/>
        <repeats value="true"/>
        <item>
          <extension url="http://hl7.org/fhir/StructureDefinition/questionnaire-itemControl">
            <valueCodeableConcept>
              <coding>
                <system value="http://hl7.org/fhir/questionnaire-item-control"/>
                <code value="flyover"/>
                <display value="Fly-over"/>
              </coding>
            </valueCodeableConcept>
          </extension>
          <text value="May be used to represent additional information that is not part of the basic definition of the element, and that modifies the understanding of the element that contains it. Usually modifier elements provide negation or qualification. In order to make the use of extensions safe and manageable, there is a strict set of governance applied to the definition and use of extensions. Though any implementer is allowed to define an extension, there is a set of requirements that SHALL be met as part of the definition of the extension. Applications processing a resource are required to check for modifier extensions. There can be no stigma associated with the use of extensions by any application, project, or standard - regardless of the institution or jurisdiction that uses or defines the extensions.  The use of extensions is what allows the FHIR specification to retain a core level of simplicity for everyone."/>
          <type value="display"/>
        </item>
      </item>
      <item>
        <extension url="http://hl7.org/fhir/StructureDefinition/questionnaire-minOccurs">
          <valueInteger value="1"/>
        </extension>
        <extension url="http://hl7.org/fhir/StructureDefinition/questionnaire-maxOccurs">
          <valueInteger value="1"/>
        </extension>
        <extension url="http://hl7.org/fhir/StructureDefinition/questionnaire-fhirType">
          <valueString value="string"/>
        </extension>
        <linkId value="MessageHeader.response.identifier"/>
        <type value="group"/>
        <required value="true"/>
        <repeats value="true"/>
        <item>
          <extension url="http://hl7.org/fhir/StructureDefinition/questionnaire-itemControl">
            <valueCodeableConcept>
              <coding>
                <system value="http://hl7.org/fhir/questionnaire-item-control"/>
                <code value="flyover"/>
                <display value="Fly-over"/>
              </coding>
            </valueCodeableConcept>
          </extension>
          <text value="The id of the message that this message is a response to."/>
          <type value="display"/>
        </item>
        <item>
          <linkId value="MessageHeader.response.identifier.value"/>
          <text value="Id of original message"/>
          <type value="string"/>
          <required value="false"/>
          <repeats value="false"/>
        </item>
      </item>
      <item>
        <extension url="http://hl7.org/fhir/StructureDefinition/questionnaire-minOccurs">
          <valueInteger value="1"/>
        </extension>
        <extension url="http://hl7.org/fhir/StructureDefinition/questionnaire-maxOccurs">
          <valueInteger value="1"/>
        </extension>
        <extension url="http://hl7.org/fhir/StructureDefinition/questionnaire-fhirType">
          <valueString value="code"/>
        </extension>
        <linkId value="MessageHeader.response.code"/>
        <type value="group"/>
        <required value="true"/>
        <repeats value="true"/>
        <item>
          <extension url="http://hl7.org/fhir/StructureDefinition/questionnaire-itemControl">
            <valueCodeableConcept>
              <coding>
                <system value="http://hl7.org/fhir/questionnaire-item-control"/>
                <code value="flyover"/>
                <display value="Fly-over"/>
              </coding>
            </valueCodeableConcept>
          </extension>
          <text value="Code that identifies the type of response to the message - whether it was successful or not, and whether it should be resent or not. This is a generic response to the request message. Specific data for the response will be found in MessageHeader.data."/>
          <type value="display"/>
        </item>
        <item>
          <linkId value="MessageHeader.response.code.value"/>
          <text value="code"/>
          <type value="choice"/>
          <required value="false"/>
          <repeats value="false"/>
        </item>
      </item>
      <item>
        <extension url="http://hl7.org/fhir/StructureDefinition/questionnaire-maxOccurs">
          <valueInteger value="1"/>
        </extension>
        <extension url="http://hl7.org/fhir/StructureDefinition/questionnaire-fhirType">
          <valueString value="Reference"/>
        </extension>
        <linkId value="MessageHeader.response.details"/>
        <type value="group"/>
        <required value="false"/>
        <repeats value="true"/>
        <item>
          <extension url="http://hl7.org/fhir/StructureDefinition/questionnaire-itemControl">
            <valueCodeableConcept>
              <coding>
                <system value="http://hl7.org/fhir/questionnaire-item-control"/>
                <code value="flyover"/>
                <display value="Fly-over"/>
              </coding>
            </valueCodeableConcept>
          </extension>
          <text value="Full details of any issues found in the message. This SHALL be contained in the bundle. If any of the issues are errors, the response code SHALL be an error."/>
          <type value="display"/>
        </item>
        <item>
          <extension url="http://hl7.org/fhir/StructureDefinition/questionnaire-allowedResource">
            <valueCode value="OperationOutcome"/>
          </extension>
          <extension url="http://hl7.org/fhir/StructureDefinition/questionnaire-referenceFilter">
            <valueString value="subject=$subj&amp;patient=$subj&amp;encounter=$encounter"/>
          </extension>
          <linkId value="MessageHeader.response.details.value"/>
          <text value="Specific list of hints/warnings/errors"/>
          <type value="reference"/>
          <required value="false"/>
          <repeats value="false"/>
        </item>
      </item>
    </item>
    <item>
      <extension url="http://hl7.org/fhir/StructureDefinition/questionnaire-minOccurs">
        <valueInteger value="1"/>
      </extension>
      <extension url="http://hl7.org/fhir/StructureDefinition/questionnaire-maxOccurs">
        <valueInteger value="1"/>
      </extension>
      <linkId value="MessageHeader.source"/>
      <text value="Message Source Application"/>
      <type value="group"/>
      <required value="true"/>
      <repeats value="false"/>
      <item>
        <extension url="http://hl7.org/fhir/StructureDefinition/questionnaire-itemControl">
          <valueCodeableConcept>
            <coding>
              <system value="http://hl7.org/fhir/questionnaire-item-control"/>
              <code value="flyover"/>
              <display value="Fly-over"/>
            </coding>
          </valueCodeableConcept>
        </extension>
        <text value="The source application from which this message originated."/>
        <type value="display"/>
      </item>
      <item>
        <extension url="http://hl7.org/fhir/StructureDefinition/questionnaire-maxOccurs">
          <valueInteger value="1"/>
        </extension>
        <extension url="http://hl7.org/fhir/StructureDefinition/questionnaire-fhirType">
          <valueString value="string"/>
        </extension>
        <linkId value="MessageHeader.source.id"/>
        <type value="group"/>
        <required value="false"/>
        <repeats value="true"/>
        <item>
          <extension url="http://hl7.org/fhir/StructureDefinition/questionnaire-itemControl">
            <valueCodeableConcept>
              <coding>
                <system value="http://hl7.org/fhir/questionnaire-item-control"/>
                <code value="flyover"/>
                <display value="Fly-over"/>
              </coding>
            </valueCodeableConcept>
          </extension>
          <text value="unique id for the element within a resource (for internal references). This may be any string value that does not contain spaces."/>
          <type value="display"/>
        </item>
        <item>
          <linkId value="MessageHeader.source.id.value"/>
          <text value="xml:id (or equivalent in JSON)"/>
          <type value="string"/>
          <required value="false"/>
          <repeats value="false"/>
        </item>
      </item>
      <item>
        <linkId value="MessageHeader.source.extension"/>
        <text value="Additional Content defined by implementations"/>
        <type value="group"/>
        <required value="false"/>
        <repeats value="true"/>
        <item>
          <extension url="http://hl7.org/fhir/StructureDefinition/questionnaire-itemControl">
            <valueCodeableConcept>
              <coding>
                <system value="http://hl7.org/fhir/questionnaire-item-control"/>
                <code value="flyover"/>
                <display value="Fly-over"/>
              </coding>
            </valueCodeableConcept>
          </extension>
          <text value="May be used to represent additional information that is not part of the basic definition of the element. In order to make the use of extensions safe and manageable, there is a strict set of governance  applied to the definition and use of extensions. Though any implementer is allowed to define an extension, there is a set of requirements that SHALL be met as part of the definition of the extension. There can be no stigma associated with the use of extensions by any application, project, or standard - regardless of the institution or jurisdiction that uses or defines the extensions.  The use of extensions is what allows the FHIR specification to retain a core level of simplicity for everyone."/>
          <type value="display"/>
        </item>
      </item>
      <item>
        <linkId value="MessageHeader.source.modifierExtension"/>
        <text value="Extensions that cannot be ignored"/>
        <type value="group"/>
        <required value="false"/>
        <repeats value="true"/>
        <item>
          <extension url="http://hl7.org/fhir/StructureDefinition/questionnaire-itemControl">
            <valueCodeableConcept>
              <coding>
                <system value="http://hl7.org/fhir/questionnaire-item-control"/>
                <code value="flyover"/>
                <display value="Fly-over"/>
              </coding>
            </valueCodeableConcept>
          </extension>
          <text value="May be used to represent additional information that is not part of the basic definition of the element, and that modifies the understanding of the element that contains it. Usually modifier elements provide negation or qualification. In order to make the use of extensions safe and manageable, there is a strict set of governance applied to the definition and use of extensions. Though any implementer is allowed to define an extension, there is a set of requirements that SHALL be met as part of the definition of the extension. Applications processing a resource are required to check for modifier extensions. There can be no stigma associated with the use of extensions by any application, project, or standard - regardless of the institution or jurisdiction that uses or defines the extensions.  The use of extensions is what allows the FHIR specification to retain a core level of simplicity for everyone."/>
          <type value="display"/>
        </item>
      </item>
      <item>
        <extension url="http://hl7.org/fhir/StructureDefinition/questionnaire-maxOccurs">
          <valueInteger value="1"/>
        </extension>
        <extension url="http://hl7.org/fhir/StructureDefinition/questionnaire-fhirType">
          <valueString value="string"/>
        </extension>
        <linkId value="MessageHeader.source.name"/>
        <type value="group"/>
        <required value="false"/>
        <repeats value="true"/>
        <item>
          <extension url="http://hl7.org/fhir/StructureDefinition/questionnaire-itemControl">
            <valueCodeableConcept>
              <coding>
                <system value="http://hl7.org/fhir/questionnaire-item-control"/>
                <code value="flyover"/>
                <display value="Fly-over"/>
              </coding>
            </valueCodeableConcept>
          </extension>
          <text value="Human-readable name for the source system."/>
          <type value="display"/>
        </item>
        <item>
          <linkId value="MessageHeader.source.name.value"/>
          <text value="Name of system"/>
          <type value="string"/>
          <required value="false"/>
          <repeats value="false"/>
        </item>
      </item>
      <item>
        <extension url="http://hl7.org/fhir/StructureDefinition/questionnaire-maxOccurs">
          <valueInteger value="1"/>
        </extension>
        <extension url="http://hl7.org/fhir/StructureDefinition/questionnaire-fhirType">
          <valueString value="string"/>
        </extension>
        <linkId value="MessageHeader.source.software"/>
        <type value="group"/>
        <required value="false"/>
        <repeats value="true"/>
        <item>
          <extension url="http://hl7.org/fhir/StructureDefinition/questionnaire-itemControl">
            <valueCodeableConcept>
              <coding>
                <system value="http://hl7.org/fhir/questionnaire-item-control"/>
                <code value="flyover"/>
                <display value="Fly-over"/>
              </coding>
            </valueCodeableConcept>
          </extension>
          <text value="May include configuration or other information useful in debugging."/>
          <type value="display"/>
        </item>
        <item>
          <linkId value="MessageHeader.source.software.value"/>
          <text value="Name of software running the system"/>
          <type value="string"/>
          <required value="false"/>
          <repeats value="false"/>
        </item>
      </item>
      <item>
        <extension url="http://hl7.org/fhir/StructureDefinition/questionnaire-maxOccurs">
          <valueInteger value="1"/>
        </extension>
        <extension url="http://hl7.org/fhir/StructureDefinition/questionnaire-fhirType">
          <valueString value="string"/>
        </extension>
        <linkId value="MessageHeader.source.version"/>
        <type value="group"/>
        <required value="false"/>
        <repeats value="true"/>
        <item>
          <extension url="http://hl7.org/fhir/StructureDefinition/questionnaire-itemControl">
            <valueCodeableConcept>
              <coding>
                <system value="http://hl7.org/fhir/questionnaire-item-control"/>
                <code value="flyover"/>
                <display value="Fly-over"/>
              </coding>
            </valueCodeableConcept>
          </extension>
          <text value="Can convey versions of multiple systems in situations where a message passes through multiple hands."/>
          <type value="display"/>
        </item>
        <item>
          <linkId value="MessageHeader.source.version.value"/>
          <text value="Version of software running"/>
          <type value="string"/>
          <required value="false"/>
          <repeats value="false"/>
        </item>
      </item>
      <item>
        <extension url="http://hl7.org/fhir/StructureDefinition/questionnaire-maxOccurs">
          <valueInteger value="1"/>
        </extension>
        <extension url="http://hl7.org/fhir/StructureDefinition/questionnaire-fhirType">
          <valueString value="ContactPoint"/>
        </extension>
        <linkId value="MessageHeader.source.contact"/>
        <text value="Human contact for problems"/>
        <type value="group"/>
        <required value="false"/>
        <repeats value="true"/>
        <item>
          <extension url="http://hl7.org/fhir/StructureDefinition/questionnaire-itemControl">
            <valueCodeableConcept>
              <coding>
                <system value="http://hl7.org/fhir/questionnaire-item-control"/>
                <code value="flyover"/>
                <display value="Fly-over"/>
              </coding>
            </valueCodeableConcept>
          </extension>
          <text value="An e-mail, phone, website or other contact point to use to resolve issues with message communications."/>
          <type value="display"/>
        </item>
        <item>
          <linkId value="MessageHeader.source.contact.system"/>
          <text value="type:"/>
          <type value="choice"/>
          <required value="false"/>
          <repeats value="false"/>
        </item>
        <item>
          <linkId value="MessageHeader.source.contact.value"/>
          <text value="value:"/>
          <type value="string"/>
          <required value="false"/>
          <repeats value="false"/>
        </item>
        <item>
          <linkId value="MessageHeader.source.contact.use"/>
          <text value="use:"/>
          <type value="choice"/>
          <required value="false"/>
          <repeats value="false"/>
        </item>
      </item>
      <item>
        <extension url="http://hl7.org/fhir/StructureDefinition/questionnaire-minOccurs">
          <valueInteger value="1"/>
        </extension>
        <extension url="http://hl7.org/fhir/StructureDefinition/questionnaire-maxOccurs">
          <valueInteger value="1"/>
        </extension>
        <extension url="http://hl7.org/fhir/StructureDefinition/questionnaire-fhirType">
          <valueString value="uri"/>
        </extension>
        <linkId value="MessageHeader.source.endpoint"/>
        <type value="group"/>
        <required value="true"/>
        <repeats value="true"/>
        <item>
          <extension url="http://hl7.org/fhir/StructureDefinition/questionnaire-itemControl">
            <valueCodeableConcept>
              <coding>
                <system value="http://hl7.org/fhir/questionnaire-item-control"/>
                <code value="flyover"/>
                <display value="Fly-over"/>
              </coding>
            </valueCodeableConcept>
          </extension>
          <text value="Identifies the routing target to send acknowledgements to. The id may be a non-resolvable URI for systems that do not use standard network-based addresses."/>
          <type value="display"/>
        </item>
        <item>
          <linkId value="MessageHeader.source.endpoint.value"/>
          <text value="Actual message source address or id"/>
          <type value="string"/>
          <required value="false"/>
          <repeats value="false"/>
        </item>
      </item>
    </item>
    <item>
      <linkId value="MessageHeader.destination"/>
      <text value="Message Destination Application(s)"/>
      <type value="group"/>
      <required value="false"/>
      <repeats value="true"/>
      <item>
        <text value="There SHOULD be at least one destination, but in some circumstances, the source system is unaware of any particular destination system."/>
        <type value="display"/>
      </item>
      <item>
        <extension url="http://hl7.org/fhir/StructureDefinition/questionnaire-itemControl">
          <valueCodeableConcept>
            <coding>
              <system value="http://hl7.org/fhir/questionnaire-item-control"/>
              <code value="flyover"/>
              <display value="Fly-over"/>
            </coding>
          </valueCodeableConcept>
        </extension>
        <text value="The destination application which the message is intended for."/>
        <type value="display"/>
      </item>
      <item>
        <extension url="http://hl7.org/fhir/StructureDefinition/questionnaire-maxOccurs">
          <valueInteger value="1"/>
        </extension>
        <extension url="http://hl7.org/fhir/StructureDefinition/questionnaire-fhirType">
          <valueString value="string"/>
        </extension>
        <linkId value="MessageHeader.destination.id"/>
        <type value="group"/>
        <required value="false"/>
        <repeats value="true"/>
        <item>
          <extension url="http://hl7.org/fhir/StructureDefinition/questionnaire-itemControl">
            <valueCodeableConcept>
              <coding>
                <system value="http://hl7.org/fhir/questionnaire-item-control"/>
                <code value="flyover"/>
                <display value="Fly-over"/>
              </coding>
            </valueCodeableConcept>
          </extension>
          <text value="unique id for the element within a resource (for internal references). This may be any string value that does not contain spaces."/>
          <type value="display"/>
        </item>
        <item>
          <linkId value="MessageHeader.destination.id.value"/>
          <text value="xml:id (or equivalent in JSON)"/>
          <type value="string"/>
          <required value="false"/>
          <repeats value="false"/>
        </item>
      </item>
      <item>
        <linkId value="MessageHeader.destination.extension"/>
        <text value="Additional Content defined by implementations"/>
        <type value="group"/>
        <required value="false"/>
        <repeats value="true"/>
        <item>
          <extension url="http://hl7.org/fhir/StructureDefinition/questionnaire-itemControl">
            <valueCodeableConcept>
              <coding>
                <system value="http://hl7.org/fhir/questionnaire-item-control"/>
                <code value="flyover"/>
                <display value="Fly-over"/>
              </coding>
            </valueCodeableConcept>
          </extension>
          <text value="May be used to represent additional information that is not part of the basic definition of the element. In order to make the use of extensions safe and manageable, there is a strict set of governance  applied to the definition and use of extensions. Though any implementer is allowed to define an extension, there is a set of requirements that SHALL be met as part of the definition of the extension. There can be no stigma associated with the use of extensions by any application, project, or standard - regardless of the institution or jurisdiction that uses or defines the extensions.  The use of extensions is what allows the FHIR specification to retain a core level of simplicity for everyone."/>
          <type value="display"/>
        </item>
      </item>
      <item>
        <linkId value="MessageHeader.destination.modifierExtension"/>
        <text value="Extensions that cannot be ignored"/>
        <type value="group"/>
        <required value="false"/>
        <repeats value="true"/>
        <item>
          <extension url="http://hl7.org/fhir/StructureDefinition/questionnaire-itemControl">
            <valueCodeableConcept>
              <coding>
                <system value="http://hl7.org/fhir/questionnaire-item-control"/>
                <code value="flyover"/>
                <display value="Fly-over"/>
              </coding>
            </valueCodeableConcept>
          </extension>
          <text value="May be used to represent additional information that is not part of the basic definition of the element, and that modifies the understanding of the element that contains it. Usually modifier elements provide negation or qualification. In order to make the use of extensions safe and manageable, there is a strict set of governance applied to the definition and use of extensions. Though any implementer is allowed to define an extension, there is a set of requirements that SHALL be met as part of the definition of the extension. Applications processing a resource are required to check for modifier extensions. There can be no stigma associated with the use of extensions by any application, project, or standard - regardless of the institution or jurisdiction that uses or defines the extensions.  The use of extensions is what allows the FHIR specification to retain a core level of simplicity for everyone."/>
          <type value="display"/>
        </item>
      </item>
      <item>
        <extension url="http://hl7.org/fhir/StructureDefinition/questionnaire-maxOccurs">
          <valueInteger value="1"/>
        </extension>
        <extension url="http://hl7.org/fhir/StructureDefinition/questionnaire-fhirType">
          <valueString value="string"/>
        </extension>
        <linkId value="MessageHeader.destination.name"/>
        <type value="group"/>
        <required value="false"/>
        <repeats value="true"/>
        <item>
          <extension url="http://hl7.org/fhir/StructureDefinition/questionnaire-itemControl">
            <valueCodeableConcept>
              <coding>
                <system value="http://hl7.org/fhir/questionnaire-item-control"/>
                <code value="flyover"/>
                <display value="Fly-over"/>
              </coding>
            </valueCodeableConcept>
          </extension>
          <text value="Human-readable name for the target system."/>
          <type value="display"/>
        </item>
        <item>
          <linkId value="MessageHeader.destination.name.value"/>
          <text value="Name of system"/>
          <type value="string"/>
          <required value="false"/>
          <repeats value="false"/>
        </item>
      </item>
      <item>
        <extension url="http://hl7.org/fhir/StructureDefinition/questionnaire-maxOccurs">
          <valueInteger value="1"/>
        </extension>
        <extension url="http://hl7.org/fhir/StructureDefinition/questionnaire-fhirType">
          <valueString value="Reference"/>
        </extension>
        <linkId value="MessageHeader.destination.target"/>
        <type value="group"/>
        <required value="false"/>
        <repeats value="true"/>
        <item>
          <extension url="http://hl7.org/fhir/StructureDefinition/questionnaire-itemControl">
            <valueCodeableConcept>
              <coding>
                <system value="http://hl7.org/fhir/questionnaire-item-control"/>
                <code value="flyover"/>
                <display value="Fly-over"/>
              </coding>
            </valueCodeableConcept>
          </extension>
          <text value="Identifies the target end system in situations where the initial message transmission is to an intermediary system."/>
          <type value="display"/>
        </item>
        <item>
          <extension url="http://hl7.org/fhir/StructureDefinition/questionnaire-allowedResource">
            <valueCode value="Device"/>
          </extension>
          <extension url="http://hl7.org/fhir/StructureDefinition/questionnaire-referenceFilter">
            <valueString value="subject=$subj&amp;patient=$subj&amp;encounter=$encounter"/>
          </extension>
          <linkId value="MessageHeader.destination.target.value"/>
          <text value="Particular delivery destination within the destination"/>
          <type value="reference"/>
          <required value="false"/>
          <repeats value="false"/>
        </item>
      </item>
      <item>
        <extension url="http://hl7.org/fhir/StructureDefinition/questionnaire-minOccurs">
          <valueInteger value="1"/>
        </extension>
        <extension url="http://hl7.org/fhir/StructureDefinition/questionnaire-maxOccurs">
          <valueInteger value="1"/>
        </extension>
        <extension url="http://hl7.org/fhir/StructureDefinition/questionnaire-fhirType">
          <valueString value="uri"/>
        </extension>
        <linkId value="MessageHeader.destination.endpoint"/>
        <type value="group"/>
        <required value="true"/>
        <repeats value="true"/>
        <item>
          <extension url="http://hl7.org/fhir/StructureDefinition/questionnaire-itemControl">
            <valueCodeableConcept>
              <coding>
                <system value="http://hl7.org/fhir/questionnaire-item-control"/>
                <code value="flyover"/>
                <display value="Fly-over"/>
              </coding>
            </valueCodeableConcept>
          </extension>
          <text value="Indicates where the message should be routed to. The id may be a non-resolvable URI for systems that do not use standard network-based addresses."/>
          <type value="display"/>
        </item>
        <item>
          <linkId value="MessageHeader.destination.endpoint.value"/>
          <text value="Actual destination address or id"/>
          <type value="string"/>
          <required value="false"/>
          <repeats value="false"/>
        </item>
      </item>
    </item>
    <item>
      <extension url="http://hl7.org/fhir/StructureDefinition/questionnaire-maxOccurs">
        <valueInteger value="1"/>
      </extension>
      <extension url="http://hl7.org/fhir/StructureDefinition/questionnaire-fhirType">
        <valueString value="Reference"/>
      </extension>
      <linkId value="MessageHeader.enterer"/>
      <type value="group"/>
      <required value="false"/>
      <repeats value="true"/>
      <item>
        <extension url="http://hl7.org/fhir/StructureDefinition/questionnaire-itemControl">
          <valueCodeableConcept>
            <coding>
              <system value="http://hl7.org/fhir/questionnaire-item-control"/>
              <code value="flyover"/>
              <display value="Fly-over"/>
            </coding>
          </valueCodeableConcept>
        </extension>
        <text value="The person or device that performed the data entry leading to this message. Where there is more than one candidate, pick the most proximal to the message. Can provide other enterers in extensions. Usually only for the request, but can be used in a response."/>
        <type value="display"/>
      </item>
      <item>
        <extension url="http://hl7.org/fhir/StructureDefinition/questionnaire-allowedResource">
          <valueCode value="Practitioner"/>
        </extension>
        <extension url="http://hl7.org/fhir/StructureDefinition/questionnaire-referenceFilter">
          <valueString value="subject=$subj&amp;patient=$subj&amp;encounter=$encounter"/>
        </extension>
        <linkId value="MessageHeader.enterer.value"/>
        <text value="The source of the data entry"/>
        <type value="reference"/>
        <required value="false"/>
        <repeats value="false"/>
      </item>
    </item>
    <item>
      <extension url="http://hl7.org/fhir/StructureDefinition/questionnaire-maxOccurs">
        <valueInteger value="1"/>
      </extension>
      <extension url="http://hl7.org/fhir/StructureDefinition/questionnaire-fhirType">
        <valueString value="Reference"/>
      </extension>
      <linkId value="MessageHeader.author"/>
      <type value="group"/>
      <required value="false"/>
      <repeats value="true"/>
      <item>
        <extension url="http://hl7.org/fhir/StructureDefinition/questionnaire-itemControl">
          <valueCodeableConcept>
            <coding>
              <system value="http://hl7.org/fhir/questionnaire-item-control"/>
              <code value="flyover"/>
              <display value="Fly-over"/>
            </coding>
          </valueCodeableConcept>
        </extension>
        <text value="The logical author of the message - the person or device that decided the described event should happen. Where there is more than one candidate, pick the most proximal to the MessageHeader. Can provide other authors in extensions. Usually only for the request, but can be used in a response."/>
        <type value="display"/>
      </item>
      <item>
        <extension url="http://hl7.org/fhir/StructureDefinition/questionnaire-allowedResource">
          <valueCode value="Practitioner"/>
        </extension>
        <extension url="http://hl7.org/fhir/StructureDefinition/questionnaire-referenceFilter">
          <valueString value="subject=$subj&amp;patient=$subj&amp;encounter=$encounter"/>
        </extension>
        <linkId value="MessageHeader.author.value"/>
        <text value="The source of the decision"/>
        <type value="reference"/>
        <required value="false"/>
        <repeats value="false"/>
      </item>
    </item>
    <item>
      <extension url="http://hl7.org/fhir/StructureDefinition/questionnaire-maxOccurs">
        <valueInteger value="1"/>
      </extension>
      <linkId value="MessageHeader.receiver"/>
      <text value="Intended &quot;real-world&quot; recipient for the data"/>
      <type value="group"/>
      <required value="false"/>
      <repeats value="true"/>
      <item>
        <extension url="http://hl7.org/fhir/StructureDefinition/questionnaire-itemControl">
          <valueCodeableConcept>
            <coding>
              <system value="http://hl7.org/fhir/questionnaire-item-control"/>
              <code value="flyover"/>
              <display value="Fly-over"/>
            </coding>
          </valueCodeableConcept>
        </extension>
        <text value="Allows data conveyed by a message to be addressed to a particular person or department when routing to a specific application isn&#39;t sufficient."/>
        <type value="display"/>
      </item>
      <item>
        <linkId value="MessageHeader.receiver._type"/>
        <text value="type"/>
        <type value="choice"/>
        <required value="false"/>
        <repeats value="false"/>
        <options>
          <reference value="#vs2"/>
        </options>
        <item>
          <extension url="http://hl7.org/fhir/StructureDefinition/questionnaire-fhirType">
            <valueString value="Reference"/>
          </extension>
          <linkId value="MessageHeader.receiver._Practitioner"/>
          <type value="group"/>
          <item>
            <extension url="http://hl7.org/fhir/StructureDefinition/questionnaire-allowedResource">
              <valueCode value="Practitioner"/>
            </extension>
            <extension url="http://hl7.org/fhir/StructureDefinition/questionnaire-referenceFilter">
              <valueString value="subject=$subj&amp;patient=$subj&amp;encounter=$encounter"/>
            </extension>
            <linkId value="MessageHeader.receiver._Practitioner.value"/>
            <text value="Practitioner"/>
            <type value="reference"/>
            <required value="false"/>
            <repeats value="false"/>
          </item>
        </item>
        <item>
          <extension url="http://hl7.org/fhir/StructureDefinition/questionnaire-fhirType">
            <valueString value="Reference"/>
          </extension>
          <linkId value="MessageHeader.receiver._Organization"/>
          <type value="group"/>
          <item>
            <extension url="http://hl7.org/fhir/StructureDefinition/questionnaire-allowedResource">
              <valueCode value="Organization"/>
            </extension>
            <extension url="http://hl7.org/fhir/StructureDefinition/questionnaire-referenceFilter">
              <valueString value="subject=$subj&amp;patient=$subj&amp;encounter=$encounter"/>
            </extension>
            <linkId value="MessageHeader.receiver._Organization.value"/>
            <text value="Organization"/>
            <type value="reference"/>
            <required value="false"/>
            <repeats value="false"/>
          </item>
        </item>
      </item>
    </item>
    <item>
      <extension url="http://hl7.org/fhir/StructureDefinition/questionnaire-maxOccurs">
        <valueInteger value="1"/>
      </extension>
      <linkId value="MessageHeader.responsible"/>
      <text value="Final responsibility for event"/>
      <type value="group"/>
      <required value="false"/>
      <repeats value="true"/>
      <item>
        <extension url="http://hl7.org/fhir/StructureDefinition/questionnaire-itemControl">
          <valueCodeableConcept>
            <coding>
              <system value="http://hl7.org/fhir/questionnaire-item-control"/>
              <code value="flyover"/>
              <display value="Fly-over"/>
            </coding>
          </valueCodeableConcept>
        </extension>
        <text value="The person or organization that accepts overall responsibility for the contents of the message. The implication is that the message event happened under the policies of the responsible party. Usually only for the request, but can be used in a response."/>
        <type value="display"/>
      </item>
      <item>
        <linkId value="MessageHeader.responsible._type"/>
        <text value="type"/>
        <type value="choice"/>
        <required value="false"/>
        <repeats value="false"/>
        <options>
          <reference value="#vs3"/>
        </options>
        <item>
          <extension url="http://hl7.org/fhir/StructureDefinition/questionnaire-fhirType">
            <valueString value="Reference"/>
          </extension>
          <linkId value="MessageHeader.responsible._Practitioner"/>
          <type value="group"/>
          <item>
            <extension url="http://hl7.org/fhir/StructureDefinition/questionnaire-allowedResource">
              <valueCode value="Practitioner"/>
            </extension>
            <extension url="http://hl7.org/fhir/StructureDefinition/questionnaire-referenceFilter">
              <valueString value="subject=$subj&amp;patient=$subj&amp;encounter=$encounter"/>
            </extension>
            <linkId value="MessageHeader.responsible._Practitioner.value"/>
            <text value="Practitioner"/>
            <type value="reference"/>
            <required value="false"/>
            <repeats value="false"/>
          </item>
        </item>
        <item>
          <extension url="http://hl7.org/fhir/StructureDefinition/questionnaire-fhirType">
            <valueString value="Reference"/>
          </extension>
          <linkId value="MessageHeader.responsible._Organization"/>
          <type value="group"/>
          <item>
            <extension url="http://hl7.org/fhir/StructureDefinition/questionnaire-allowedResource">
              <valueCode value="Organization"/>
            </extension>
            <extension url="http://hl7.org/fhir/StructureDefinition/questionnaire-referenceFilter">
              <valueString value="subject=$subj&amp;patient=$subj&amp;encounter=$encounter"/>
            </extension>
            <linkId value="MessageHeader.responsible._Organization.value"/>
            <text value="Organization"/>
            <type value="reference"/>
            <required value="false"/>
            <repeats value="false"/>
          </item>
        </item>
      </item>
    </item>
    <item>
      <extension url="http://hl7.org/fhir/StructureDefinition/questionnaire-maxOccurs">
        <valueInteger value="1"/>
      </extension>
      <extension url="http://hl7.org/fhir/StructureDefinition/questionnaire-fhirType">
        <valueString value="CodeableConcept"/>
      </extension>
      <linkId value="MessageHeader.reason"/>
      <text value="Cause of event"/>
      <type value="group"/>
      <required value="false"/>
      <repeats value="true"/>
      <item>
        <extension url="http://hl7.org/fhir/StructureDefinition/questionnaire-itemControl">
          <valueCodeableConcept>
            <coding>
              <system value="http://hl7.org/fhir/questionnaire-item-control"/>
              <code value="flyover"/>
              <display value="Fly-over"/>
            </coding>
          </valueCodeableConcept>
        </extension>
        <text value="Coded indication of the cause for the event - indicates  a reason for the occurrence of the event that is a focus of this message."/>
        <type value="display"/>
      </item>
      <item>
        <linkId value="MessageHeader.reason.coding"/>
        <text value="code:"/>
        <type value="open-choice"/>
        <required value="false"/>
        <repeats value="false"/>
      </item>
      <item>
        <linkId value="MessageHeader.reason.text"/>
        <text value="text:"/>
        <type value="string"/>
        <required value="false"/>
        <repeats value="false"/>
      </item>
    </item>
    <item>
      <extension url="http://hl7.org/fhir/StructureDefinition/questionnaire-fhirType">
        <valueString value="Reference"/>
      </extension>
      <linkId value="MessageHeader.data"/>
      <type value="group"/>
      <required value="false"/>
      <repeats value="true"/>
      <item>
        <extension url="http://hl7.org/fhir/StructureDefinition/questionnaire-itemControl">
          <valueCodeableConcept>
            <coding>
              <system value="http://hl7.org/fhir/questionnaire-item-control"/>
              <code value="flyover"/>
              <display value="Fly-over"/>
            </coding>
          </valueCodeableConcept>
        </extension>
        <text value="The actual data of the message - a reference to the root/focus class of the event. The data is defined where the transaction type is defined. The transaction data is always included in the bundle that is the full message.  Only the root resource is specified.  The resources it references should be contained in the bundle but are not also listed here.  Multiple repetitions are allowed to cater for merges and other situations with multiple focal targets."/>
        <type value="display"/>
      </item>
      <item>
        <extension url="http://hl7.org/fhir/StructureDefinition/questionnaire-allowedResource">
          <valueCode value="Resource"/>
        </extension>
        <extension url="http://hl7.org/fhir/StructureDefinition/questionnaire-referenceFilter">
          <valueString value="subject=$subj&amp;patient=$subj&amp;encounter=$encounter"/>
        </extension>
        <linkId value="MessageHeader.data.value"/>
        <text value="The actual content of the message"/>
        <type value="reference"/>
        <required value="false"/>
        <repeats value="false"/>
      </item>
    </item>
  </item>
</Questionnaire>