<?xml version="1.0" encoding="UTF-8"?><CarePlan xmlns="http://hl7.org/fhir">
  <id value="example"/>
  <text>
    <status value="additional"/>
    <div xmlns="http://www.w3.org/1999/xhtml">
      <p> A simple care plan to indicate a patient taking their weight once a day because of obesity.
            Some Notes: </p>
      <ul>
        <li>It would be good to have some way of specifying/coding a goal; e.g. what the target weight is</li>
        <li>In the codeable concepts I&#39;ve been lazy and just put the text. There should, of course, be a code behind these</li>
      </ul>
    </div>
  </text>
  <contained>
    <Condition>
      <id value="p1"/>
      <verificationStatus value="confirmed"/>
      <code>
        <text value="Obesity"/>
      </code>
      <subject>
        <reference value="Patient/example"/>
        <display value="Peter James Chalmers"/>
      </subject>
    </Condition>
  </contained>
  <contained>
    <Goal>
      <id value="goal"/>
      <extension url="http://hl7.org/fhir/StructureDefinition/goal-target">
        <extension url="goal-target.measure">
          <valueCodeableConcept>
            <coding>
              <system value="http://loinc.org"/>
              <code value="29463-7"/>
              <display value="Body weight"/>
            </coding>
          </valueCodeableConcept>
        </extension>
        <extension url="goal-target.detail">
          <valueQuantity>
            <value value="80"/>
            <system value="http://units-of-measure.org"/>
            <code value="kg"/>
          </valueQuantity>
        </extension>
      </extension>
      <status value="planned"/>
      <description>
        <text value="Target weight is 80 kg"/>
      </description>
      <subject>
        <reference value="Patient/example"/>
        <display value="Peter James Chalmers"/>
      </subject>
    </Goal>
  </contained>
  <status value="active"/>
  <subject>
    <reference value="Patient/example"/>
    <display value="Peter James Chalmers"/>
  </subject>
  <period>
    <end value="2013-01-01"/>
  </period>
  <careTeam>
    <reference value="CareTeam/example"/>
  </careTeam>
  <addresses>
    <reference value="#p1"/>
    <display value="obesity"/>
  </addresses>
  <goal>
    <reference value="#goal"/>
  </goal>
  <activity>
    <detail>
      <category>
        <coding>
          <system value="http://hl7.org/fhir/care-plan-activity-category"/>
          <code value="observation"/>
        </coding>
      </category>
      <code>
        <text value="a code for weight measurement"/>
      </code>
      <prohibited value="false"/>
      <scheduledTiming>
        <repeat>
          <frequency value="1"/>
          <period value="1"/>
          <periodUnit value="d"/>
        </repeat>
      </scheduledTiming>
      <performer>
        <reference value="Patient/example"/>
        <display value="Peter James Chalmers"/>
      </performer>
    </detail>
  </activity>
</CarePlan>